File: experimental_data/tensile_specimen_test_data/tensile_test_data/20250312/original_data/SSS 2 03-12-25 16 18 12 下午/数采：横梁, … - (实时值).csv
"文件路径: C:\Users\Lenovo\Desktop\Wayne\20250312\原始数据\SSS 2 03-12-25 16 18 12 下午\数采：横梁, … - (实时值).csv   "
"试验: 拉伸试验（UNIVER）      视频引伸计采集变形-W 1"
"试验运行: SSS 2"
"日期: 2025/3/12 11:48:25"
""
""
"横梁 ","力 ","视频引伸计变形 ","应变 ","时间 "
"mm","N","mm","mm/mm","sec"
"0.00270132","-1.58576","-0.0013","-2.6e-05","0.1"
"0.0365144","3.70223","-0.0049","-9.8e-05","1.1"
"0.0699083","9.52287","0.0077","0.000154","2.1"
"0.103302","15.1471","0.024","0.00048","3.1"
"0.136603","20.6784","0.0425","0.00085","4.1"
"0.169904","26.518","0.0632","0.001264","5.1"
"0.203204","31.934","0.0857","0.001714","6.1"
"0.236552","37.6178","0.1065","0.00213","7.1"
"0.269946","43.1676","0.1279","0.002558","8.1"
"0.3032","48.7653","0.1508","0.003016","9.1"
"0.336547","54.2861","0.1719","0.003438","10.1"
"0.369895","59.8312","0.194","0.00388","11.1"
"0.403242","65.0891","0.2173","0.004346","12.1"
"0.436543","70.5646","0.2394","0.004788","13.1"
"0.469843","76.2529","0.2619","0.005238","14.1"
"0.503237","81.4237","0.2839","0.005678","15.1"
"0.536585","87.0936","0.3071","0.006142","16.1"
"0.569885","92.1776","0.3296","0.006592","17.1"
"0.603233","97.6653","0.3521","0.007042","18.1"
"0.63658","102.908","0.3755","0.00751","19.1"
"0.669881","108.443","0.3983","0.007966","20.1"
"0.703228","113.924","0.4213","0.008426","21.1"
"0.736529","119.304","0.4437","0.008874","22.1"
"0.769876","124.567","0.4665","0.00933","23.1"
"0.80327","129.979","0.4893","0.009786","24.1"
"0.836571","134.943","0.5122","0.010244","25.1"
"0.869918","140.446","0.5342","0.010684","26.1"
"0.903219","145.57","0.557","0.01114","27.1"
"0.936566","150.734","0.5798","0.011596","28.1"
"0.969914","155.768","0.6025","0.01205","29.1"
"1.00321","161.131","0.6259","0.012518","30.1"
"1.03651","166.31","0.6496","0.012992","31.1"
"1.06991","171.632","0.6706","0.013412","32.1"
"1.10326","176.544","0.6933","0.013866","33.1"
"1.13656","181.857","0.7165","0.01433","34.1"
"1.16986","186.923","0.7393","0.014786","35.1"
"1.20321","192.173","0.7616","0.015232","36.1"
"1.23655","197.237","0.7846","0.015692","37.1"
"1.26985","202.348","0.8086","0.016172","38.1"
"1.3032","207.055","0.8295","0.01659","39.1"
"1.33659","212.256","0.8524","0.017048","40.1"
"1.3699","217.118","0.8756","0.017512","41.1"
"1.40324","222.299","0.8997","0.017994","42.1"
"1.43654","227.183","0.9228","0.018456","43.1"
"1.46989","231.9","0.9441","0.018882","44.1"
"1.50324","237.253","0.9663","0.019326","45.1"
"1.53659","242.142","0.9906","0.019812","46.1"
"1.56989","246.915","1.0117","0.020234","47.1"
"1.60323","251.867","1.0344","0.020688","48.1"
"1.63663","256.617","1.0584","0.021168","49.1"
"1.66993","261.553","1.0775","0.02155","50.1"
"1.70318","266.32","1.1034","0.022068","51.1"
"1.73653","270.871","1.123","0.02246","52.1"
"1.76992","275.699","1.1468","0.022936","53.1"
"1.80322","280.39","1.1691","0.023382","54.1"
"1.83652","285.165","1.1922","0.023844","55.1"
"1.86987","290.042","1.2173","0.024346","56.1"
"1.90327","294.644","1.2372","0.024744","57.1"
"1.93661","299.542","1.2603","0.025206","58.1"
"1.96987","303.998","1.2823","0.025646","59.1"
"2.00322","308.795","1.3061","0.026122","60.1"
"2.03656","313.496","1.328","0.02656","61.1"
"2.06986","318.141","1.3497","0.026994","62.1"
"2.10321","322.585","1.3727","0.027454","63.1"
"2.13651","327.137","1.3943","0.027886","64.1"
"2.16995","331.779","1.4181","0.028362","65.1"
"2.2033","336.411","1.441","0.02882","66.1"
"2.23655","340.675","1.4627","0.029254","67.1"
"2.26985","345.39","1.4868","0.029736","68.1"
"2.30325","349.815","1.5088","0.030176","69.1"
"2.33659","354.265","1.5322","0.030644","70.1"
"2.3699","358.722","1.5541","0.031082","71.1"
"2.4032","363.185","1.576","0.03152","72.1"
"2.43659","367.628","1.6002","0.032004","73.1"
"2.46994","372.002","1.6222","0.032444","74.1"
"2.50319","376.485","1.6441","0.032882","75.1"
"2.53649","380.77","1.6685","0.03337","76.1"
"2.56989","384.904","1.6899","0.033798","77.1"
"2.60323","389.092","1.7126","0.034252","78.1"
"2.63658","393.509","1.7365","0.03473","79.1"
"2.66984","397.794","1.7595","0.03519","80.1"
"2.70323","402.068","1.7798","0.035596","81.1"
"2.73662","406.297","1.8039","0.036078","82.1"
"2.76988","410.368","1.8262","0.036524","83.1"
"2.80318","414.566","1.8491","0.036982","84.1"
"2.83653","418.854","1.8709","0.037418","85.1"
"2.86992","422.928","1.895","0.0379","86.1"
"2.90327","426.88","1.917","0.03834","87.1"
"2.93657","430.983","1.9392","0.038784","88.1"
"2.96987","435.21","1.9625","0.03925","89.1"
"3.00331","438.994","1.9848","0.039696","90.1"
"3.03661","442.94","2.2298","0.044596","91.1"
"3.06986","447.169","2.253","0.04506","92.1"
"3.10316","451.007","2.2821","0.045642","93.1"
"3.13656","455.054","2.3048","0.046096","94.1"
"3.16991","458.907","2.3314","0.046628","95.1"
"3.20316","462.937","2.3556","0.047112","96.1"
"3.23655","466.769","2.3811","0.047622","97.1"
"3.2699","470.731","2.4078","0.048156","98.1"
"3.30325","474.261","2.4374","0.048748","99.1"
"3.3365","478.16","2.461","0.04922","100.1"
"3.36985","481.729","2.4848","0.049696","101.1"
"3.40324","485.607","2.5083","0.050166","102.1"
"3.43659","489.407","2.537","0.05074","103.1"
"3.46989","492.837","2.5628","0.051256","104.1"
"3.50324","496.756","2.591","0.05182","105.1"
"3.53659","500.338","2.6152","0.052304","106.1"
"3.56993","503.893","2.6459","0.052918","107.1"
"3.60323","507.695","2.6742","0.053484","108.1"
"3.63649","510.923","2.6916","0.053832","109.1"
"3.66988","514.776","2.7196","0.054392","110.1"
"3.70328","518.235","2.7431","0.054862","111.1"
"3.73658","521.717","2.7695","0.05539","112.1"
"3.76988","525.253","2.8005","0.05601","113.1"
"3.80323","528.815","2.8258","0.056516","114.1"
"3.83657","531.983","2.8551","0.057102","115.1"
"3.86987","535.485","2.8788","0.057576","116.1"
"3.90313","538.998","2.8991","0.057982","117.1"
"3.93657","542.079","2.9273","0.058546","118.1"
"3.96992","545.324","2.9464","0.058928","119.1"
"4.00322","548.558","2.9789","0.059578","120.1"
"4.03656","551.883","3.0014","0.060028","121.1"
"4.06986","555.29","3.0331","0.060662","122.1"
"4.10321","558.322","3.0635","0.06127","123.1"
"4.13656","561.573","3.0806","0.061612","124.1"
"4.16986","564.701","3.1162","0.062324","125.1"
"4.20321","567.963","3.14","0.0628","126.1"
"4.2366","570.79","3.1625","0.06325","127.1"
"4.26995","574.028","3.1899","0.063798","128.1"
"4.30325","577.211","3.2125","0.06425","129.1"
"4.33655","579.967","3.2471","0.064942","130.1"
"4.3699","582.966","3.2716","0.065432","131.1"
"4.40324","585.96","3.301","0.06602","132.1"
"4.43655","588.682","3.3263","0.066526","133.1"
"4.46985","591.981","3.3539","0.067078","134.1"
"4.50324","594.695","3.3791","0.067582","135.1"
"4.53659","597.394","3.4082","0.068164","136.1"
"4.56989","600.566","3.4397","0.068794","137.1"
"4.60319","603.245","3.4588","0.069176","138.1"
"4.63654","606.151","3.4837","0.069674","139.1"
"4.66988","608.927","3.5158","0.070316","140.1"
"4.70323","611.561","3.5364","0.070728","141.1"
"4.73653","614.214","3.5692","0.071384","142.1"
"4.76988","616.923","3.6038","0.072076","143.1"
"4.80327","619.757","3.6278","0.072556","144.1"
"4.83657","622.29","3.6511","0.073022","145.1"
"4.86987","624.977","3.6773","0.073546","146.1"
"4.90322","627.644","3.709","0.07418","147.1"
"4.93657","630.283","3.7389","0.074778","148.1"
"4.96992","633.056","3.7674","0.075348","149.1"
"5.00322","635.266","3.7891","0.075782","150.1"
"5.03652","637.967","3.8201","0.076402","151.1"
"5.06996","640.279","3.8513","0.077026","152.1"
"5.10326","642.626","3.8814","0.077628","153.1"
"5.13656","645.31","3.9071","0.078142","154.1"
"5.16986","647.576","3.9277","0.078554","155.1"
"5.20321","649.939","3.9628","0.079256","156.1"
"5.23655","652.347","3.9814","0.079628","157.1"
"5.26986","654.612","4.0022","0.080044","158.1"
"5.30316","656.857","4.0271","0.080542","159.1"
"5.3366","659.33","4.0493","0.080986","160.1"
"5.36994","661.552","4.0716","0.081432","161.1"
"5.4032","663.808","4.0984","0.081968","162.1"
"5.4365","666.109","4.117","0.08234","163.1"
"5.46985","668.353","4.1434","0.082868","164.1"
"5.50324","670.4","4.1641","0.083282","165.1"
"5.53659","672.445","4.1852","0.083704","166.1"
"5.56984","674.538","4.2113","0.084226","167.1"
"5.60324","676.608","4.2339","0.084678","168.1"
"5.63663","678.758","4.2565","0.08513","169.1"
"5.66993","680.83","4.2787","0.085574","170.1"
"5.70318","682.969","4.3046","0.086092","171.1"
"5.73653","685.018","4.3274","0.086548","172.1"
"5.76993","686.93","4.3521","0.087042","173.1"
"5.80323","689.138","4.3743","0.087486","174.1"
"5.83653","691.08","4.3969","0.087938","175.1"
"5.86987","692.843","4.4216","0.088432","176.1"
"5.90327","694.779","4.4441","0.088882","177.1"
"5.93657","696.653","4.4656","0.089312","178.1"
"5.96987","698.271","4.4919","0.089838","179.1"
"6.00317","700.246","4.5129","0.090258","180.1"
"6.03656","702.103","4.5409","0.090818","181.1"
"6.06991","703.905","4.561","0.09122","182.1"
"6.10321","705.588","4.583","0.09166","183.1"
"6.13656","707.731","4.6079","0.092158","184.1"
"6.16991","709.243","4.629","0.09258","185.1"
"6.20326","711.093","4.6514","0.093028","186.1"
"6.23651","712.672","4.6794","0.093588","187.1"
"6.26986","714.412","4.697","0.09394","188.1"
"6.30325","716.093","4.7217","0.094434","189.1"
"6.3366","717.815","4.746","0.09492","190.1"
"6.3699","719.37","4.7689","0.095378","191.1"
"6.4032","721.099","4.7895","0.09579","192.1"
"6.43664","722.493","4.8162","0.096324","193.1"
"6.46994","724.211","4.8392","0.096784","194.1"
"6.50319","725.77","4.8634","0.097268","195.1"
"6.5365","727.394","4.8867","0.097734","196.1"
"6.56989","728.787","4.9152","0.098304","197.1"
"6.60324","730.321","4.9361","0.098722","198.1"
"6.63654","731.546","4.9565","0.09913","199.1"
"6.66988","733.318","4.9796","0.099592","200.1"
"6.70323","734.452","5.0053","0.100106","201.1"
"6.73658","736.268","5.0282","0.100564","202.1"
"6.76988","737.508","5.0529","0.101058","203.1"
"6.80318","738.758","5.0754","0.101508","204.1"
"6.83653","740.278","5.0966","0.101932","205.1"
"6.86992","741.664","5.1227","0.102454","206.1"
"6.90322","742.718","5.1458","0.102916","207.1"
"6.93657","744.091","5.1695","0.10339","208.1"
"6.96987","745.221","5.1926","0.103852","209.1"
"7.00326","746.638","5.2141","0.104282","210.1"
"7.03657","747.812","5.2374","0.104748","211.1"
"7.06987","749.119","5.2633","0.105266","212.1"
"7.10321","750.273","5.2872","0.105744","213.1"
"7.13661","751.427","5.3134","0.106268","214.1"
"7.16991","752.748","5.3355","0.10671","215.1"
"7.20326","753.723","5.3585","0.10717","216.1"
"7.23656","755.276","5.3809","0.107618","217.1"
"7.2699","756.439","5.4074","0.108148","218.1"
"7.30325","757.348","5.425","0.1085","219.1"
"7.33651","758.618","5.4533","0.109066","220.1"
"7.36985","759.644","5.4777","0.109554","221.1"
"7.40325","760.643","5.4985","0.10997","222.1"
"7.43659","761.886","5.5196","0.110392","223.1"
"7.46989","762.85","5.5438","0.110876","224.1"
"7.5032","763.935","5.5658","0.111316","225.1"
"7.53654","764.895","5.5931","0.111862","226.1"
"7.56994","766.074","5.6124","0.112248","227.1"
"7.60319","766.996","5.6428","0.112856","228.1"
"7.63654","767.788","5.66","0.1132","229.1"
"7.66993","769.02","5.6818","0.113636","230.1"
"7.70328","770.298","5.7041","0.114082","231.1"
"7.73663","770.968","5.7338","0.114676","232.1"
"7.76988","771.755","5.7507","0.115014","233.1"
"7.80323","772.584","5.7757","0.115514","234.1"
"7.83658","773.914","5.7978","0.115956","235.1"
"7.86988","774.565","5.8232","0.116464","236.1"
"7.90318","775.473","5.8458","0.116916","237.1"
"7.93657","776.321","5.8645","0.11729","238.1"
"7.96992","777.154","5.8945","0.11789","239.1"
"8.00327","778.114","5.9128","0.118256","240.1"
"8.03652","778.78","5.9354","0.118708","241.1"
"8.06987","779.963","5.9593","0.119186","242.1"
"8.10321","780.673","5.9798","0.119596","243.1"
"8.13656","781.435","5.9971","0.119942","244.1"
"8.16986","782.102","6.0211","0.120422","245.1"
"8.20321","782.999","6.0458","0.120916","246.1"
"8.2366","783.836","6.0685","0.12137","247.1"
"8.26995","784.814","6.0837","0.121674","248.1"
"8.30321","785.266","6.1131","0.122262","249.1"
"8.33655","785.98","6.1291","0.122582","250.1"
"8.3699","786.793","6.1551","0.123102","251.1"
"8.40325","787.536","6.173","0.12346","252.1"
"8.43655","788.277","6.2008","0.124016","253.1"
"8.46985","789.023","6.2187","0.124374","254.1"
"8.50329","789.581","6.2442","0.124884","255.1"
"8.53659","790.282","6.2667","0.125334","256.1"
"8.56989","790.887","6.2878","0.125756","257.1"
"8.60319","791.591","6.3054","0.126108","258.1"
"8.63654","792.282","6.3315","0.12663","259.1"
"8.66989","792.985","6.3542","0.127084","260.1"
"8.70323","793.751","6.3722","0.127444","261.1"
"8.73649","794.323","6.3906","0.127812","262.1"
"8.76988","794.937","6.4175","0.12835","263.1"
"8.80328","795.502","6.4396","0.128792","264.1"
"8.83653","796.195","6.4596","0.129192","265.1"
"8.86983","796.651","6.4849","0.129698","266.1"
"8.90318","797.161","6.5009","0.130018","267.1"
"8.93657","797.84","6.5293","0.130586","268.1"
"8.96992","798.375","6.5486","0.130972","269.1"
"9.00317","798.871","6.5697","0.131394","270.1"
"9.03657","799.501","6.5885","0.13177","271.1"
"9.06996","800.058","6.6121","0.132242","272.1"
"9.10326","800.519","6.6381","0.132762","273.1"
"9.13656","800.941","6.6574","0.133148","274.1"
"9.16986","801.428","6.6795","0.13359","275.1"
"9.20326","801.803","6.6934","0.133868","276.1"
"9.2366","802.286","6.7155","0.13431","277.1"
"9.26986","802.715","6.7354","0.134708","278.1"
"9.30321","803.489","6.757","0.13514","279.1"
"9.3366","803.612","6.7789","0.135578","280.1"
"9.3699","804.261","6.7931","0.135862","281.1"
"9.4032","804.561","6.8155","0.13631","282.1"
"9.4365","804.979","6.8347","0.136694","283.1"
"9.4699","805.307","6.8564","0.137128","284.1"
"9.50324","805.814","6.8781","0.137562","285.1"
"9.53654","806.401","6.8998","0.137996","286.1"
"9.56984","806.576","6.9161","0.138322","287.1"
"9.60324","806.84","6.9352","0.138704","288.1"
"9.63659","807.307","6.9562","0.139124","289.1"
"9.66984","807.472","6.9745","0.13949","290.1"
"9.70319","808.049","6.9939","0.139878","291.1"
"9.73658","808.493","7.0123","0.140246","292.1"
"9.76993","808.721","7.0363","0.140726","293.1"
"9.80323","808.943","7.0551","0.141102","294.1"
"9.83658","809.456","7.0727","0.141454","295.1"
"9.86992","809.724","7.0952","0.141904","296.1"
"9.90327","810.053","7.1137","0.142274","297.1"
"9.93657","810.433","7.1352","0.142704","298.1"
"9.96983","810.603","7.1547","0.143094","299.1"
"10.0032","810.782","7.1712","0.143424","300.1"
"10.0366","811.114","7.1906","0.143812","301.1"
"10.0699","811.257","7.2124","0.144248","302.1"
"10.1032","811.517","7.229","0.14458","303.1"
"10.1365","811.634","7.2488","0.144976","304.1"
"10.1699","812.156","7.2654","0.145308","305.1"
"10.2032","812.269","7.2826","0.145652","306.1"
"10.2365","812.46","7.3029","0.146058","307.1"
"10.2699","812.587","7.3193","0.146386","308.1"
"10.3033","812.925","7.3398","0.146796","309.1"
"10.3366","812.904","7.3588","0.147176","310.1"
"10.3699","813.303","7.3926","0.147852","311.1"
"10.4032","813.508","7.4154","0.148308","312.1"
"10.4366","813.371","7.4412","0.148824","313.1"
"10.4699","813.853","7.4657","0.149314","314.1"
"10.5032","813.815","7.4949","0.149898","315.1"
"10.5365","814.092","7.5236","0.150472","316.1"
"10.5699","814.269","7.5438","0.150876","317.1"
"10.6032","814.249","7.5723","0.151446","318.1"
"10.6366","814.73","7.5981","0.151962","319.1"
"10.6698","814.723","7.6268","0.152536","320.1"
"10.7032","814.816","7.6557","0.153114","321.1"
"10.7366","815.152","7.6799","0.153598","322.1"
"10.7698","814.915","7.7078","0.154156","323.1"
"10.8032","814.98","7.7352","0.154704","324.1"
"10.8365","815.065","7.7655","0.15531","325.1"
"10.8699","815.267","7.7889","0.155778","326.1"
"10.9033","815.219","7.8171","0.156342","327.1"
"10.9365","815.162","7.8443","0.156886","328.1"
"10.9699","815.532","7.8738","0.157476","329.1"
"11.0033","815.244","7.8987","0.157974","330.1"
"11.0365","815.361","7.9277","0.158554","331.1"
"11.0699","815.453","7.951","0.15902","332.1"
"11.1032","815.247","7.9807","0.159614","333.1"
"11.1366","815.522","8.0101","0.160202","334.1"
"11.17","815.853","8.0372","0.160744","335.1"
"11.2032","815.65","8.0626","0.161252","336.1"
"11.2366","815.654","8.0893","0.161786","337.1"
"11.2699","815.657","8.1205","0.16241","338.1"
"11.3033","815.572","8.1465","0.16293","339.1"
"11.3366","815.824","8.177","0.16354","340.1"
"11.3699","815.557","8.202","0.16404","341.1"
"11.4032","815.477","8.2294","0.164588","342.1"
"11.4366","815.454","8.2611","0.165222","343.1"
"11.4699","815.54","8.2868","0.165736","344.1"
"11.5032","815.318","8.3172","0.166344","345.1"
"11.5365","815.509","8.3437","0.166874","346.1"
"11.5699","815.28","8.3725","0.16745","347.1"
"11.6032","815.313","8.4003","0.168006","348.1"
"11.6365","815.207","8.4288","0.168576","349.1"
"11.6699","815.368","8.4586","0.169172","350.1"
"11.7033","815.082","8.4874","0.169748","351.1"
"11.7365","815.001","8.517","0.17034","352.1"
"11.7699","814.751","8.5416","0.170832","353.1"
"11.8032","814.774","8.5729","0.171458","354.1"
"11.8366","814.627","8.6031","0.172062","355.1"
"11.8699","814.363","8.633","0.17266","356.1"
"11.9032","814.605","8.6584","0.173168","357.1"
"11.9366","814.352","8.6879","0.173758","358.1"
"11.97","814.185","8.7177","0.174354","359.1"
"12.0033","814.034","8.7447","0.174894","360.1"
"12.0365","814.04","8.7748","0.175496","361.1"
"12.0698","813.84","8.8059","0.176118","362.1"
"12.1033","813.566","8.8348","0.176696","363.1"
"12.1366","813.261","8.8655","0.17731","364.1"
"12.1698","813.249","8.8967","0.177934","365.1"
"12.2032","813.028","8.9243","0.178486","366.1"
"12.2366","812.865","8.9539","0.179078","367.1"
"12.2699","812.437","8.9836","0.179672","368.1"
"12.3032","812.291","9.0117","0.180234","369.1"
"12.3365","812.026","9.0442","0.180884","370.1"
"12.3699","811.906","9.0738","0.181446","371.1"
"12.4032","811.819","9.104","0.182084","372.1"
"12.4365","811.5","9.1294","0.182588","373.1"
"12.4699","811.402","9.163","0.18326","374.1"
"12.5033","811.263","9.1926","0.183852","375.1"
"12.5366","810.777","9.2202","0.184404","376.1"
"12.5699","810.545","9.2534","0.185068","377.1"
"12.6032","810.146","9.284","0.18568","378.1"
"12.6366","809.833","9.3159","0.186318","379.1"
"12.6699","809.495","9.3433","0.186866","380.1"
"12.7032","809.314","9.3774","0.187548","381.1"
"12.7365","809.137","9.4085","0.18817","382.1"
"12.7699","808.619","9.4367","0.188734","383.1"
"12.8032","808.315","9.4707","0.189414","384.1"
"12.8365","808.016","9.5003","0.190006","385.1"
"12.8698","807.684","9.5272","0.190544","386.1"
"12.9032","807.262","9.5613","0.191226","387.1"
"12.9366","806.972","9.5979","0.191958","388.1"
"12.9699","806.526","9.6258","0.192516","389.1"
"13.0032","806.231","9.6566","0.193132","390.1"
"13.0366","805.764","9.6902","0.193804","391.1"
"13.0699","805.304","9.7231","0.194462","392.1"
"13.1032","805.061","9.7505","0.19501","393.1"
"13.1365","804.509","9.7811","0.195622","394.1"
"13.1699","804.241","9.818","0.19636","395.1"
"13.2033","803.814","9.8489","0.196978","396.1"
"13.2366","803.302","9.8797","0.197594","397.1"
"13.2699","803.024","9.917","0.19834","398.1"
"13.3032","802.541","9.9488","0.198976","399.1"
"13.3366","801.904","9.9773","0.199546","400.1"
"13.3699","801.603","10.0117","0.200234","401.1"
"13.4032","800.716","10.0466","0.200932","402.1"
"13.4365","800.295","10.0759","0.201518","403.1"
"13.4699","799.839","10.1099","0.202198","404.1"
"13.5032","799.544","10.144","0.20288","405.1"
"13.5365","798.753","10.1771","0.203542","406.1"
"13.5698","798.113","10.2093","0.204186","407.1"
"13.6032","797.581","10.2435","0.20487","408.1"
"13.6365","796.841","10.2771","0.205542","409.1"
"13.6698","796.079","10.3095","0.20619","410.1"
"13.7032","795.57","10.3464","0.206928","411.1"
"13.7365","794.946","10.3777","0.207554","412.1"
"13.7699","794.062","10.4098","0.208196","413.1"
"13.8032","793.414","10.4481","0.208962","414.1"
"13.8365","792.566","10.4815","0.20963","415.1"
"13.8699","791.911","10.5159","0.210318","416.1"
"13.9033","791.064","10.5508","0.211016","417.1"
"13.9366","790.125","10.5809","0.211618","418.1"
"13.9699","789.221","10.6192","0.212384","419.1"
"14.0032","788.163","10.6539","0.213078","420.1"
"14.0366","787.195","10.6863","0.213726","421.1"
"14.07","786.281","10.7234","0.214468","422.1"
"14.1032","784.909","10.7561","0.215122","423.1"
"14.1365","783.603","10.7913","0.215826","424.1"
"14.1699","782.623","10.8243","0.216486","425.1"
"14.2032","780.963","10.859","0.21718","426.1"
"14.2365","779.816","10.8944","0.217888","427.1"
"14.2699","778.224","10.9275","0.21855","428.1"
"14.3033","776.723","10.9606","0.219212","429.1"
"14.3366","774.559","10.9948","0.219896","430.1"
"14.3699","772.519","11.0251","0.220502","431.1"
"14.4032","770.399","11.0608","0.221216","432.1"
"14.4366","768.314","11.0886","0.221772","433.1"
"14.4699","765.945","11.1204","0.222408","434.1"
"14.5032","762.99","11.1465","0.22293","435.1"
"14.5365","760.132","11.1754","0.223508","436.1"
"14.5699","756.863","11.2","0.224","437.1"
"14.6033","753.374","11.2186","0.224372","438.1"
"14.6365","749.465","11.2414","0.224722","439.1"
"14.6698","745.279","11.2533","0.225066","440.1"
"14.7032","740.967","11.2648","0.225296","441.1"
"14.7366","736.094","11.2723","0.225446","442.1"
"14.7699","730.918","11.2764","0.225528","443.1"
"14.8032","726.026","11.2813","0.225626","444.1"
"14.8366","720.933","11.2828","0.225656","445.1"
"14.8699","716.262","11.2827","0.225654","446.1"
"14.9032","711.975","11.2794","0.225588","447.1"
"14.9365","708.186","11.2862","0.225724","448.1"
"14.9699","704.737","11.2825","0.22565","449.1"
"15.0032","701.337","11.289","0.22578","450.1"
"15.0366","698.388","11.2918","0.225836","451.1"
"15.0699","695.559","11.287","0.22574","452.1"
"15.1032","692.77","11.2928","0.225856","453.1"
"15.1366","690.276","11.2929","0.225858","454.1"
"15.1699","687.455","11.2921","0.225842","455.1"
"15.2032","685.326","11.2964","0.225928","456.1"
"15.2365","682.971","11.291","0.22582","457.1"
"15.2699","680.504","11.2928","0.225856","458.1"
"15.3033","678.441","11.2955","0.22591","459.1"
"15.3365","676.086","11.2969","0.225938","460.1"
"15.3699","674.008","11.2945","0.22589","461.1"
"15.4033","672.367","11.2952","0.225904","462.1"
"15.4366","670.42","11.298","0.22596","463.1"
"15.4699","668.468","11.2972","0.225944","464.1"
"15.5032","666.532","11.2989","0.225978","465.1"
"15.5366","665.096","11.2998","0.225996","466.1"
"15.5699","663.541","11.3044","0.226088","467.1"
"15.6032","662.184","11.3028","0.226056","468.1"
"15.6365","660.719","11.3024","0.226048","469.1"
"15.6699","659.658","11.3041","0.226082","470.1"
"15.7032","658.384","11.3073","0.226146","471.1"
"15.7365","657.667","11.3138","0.226276","472.1"
"15.7698","656.722","11.3152","0.226304","473.1"
"15.8032","655.681","11.3236","0.226472","474.1"
"15.8366","654.747","11.3279","0.226558","475.1"
"15.8699","654.135","11.329","0.22658","476.1"
"15.9032","653.451","11.3375","0.22675","477.1"
"15.9366","652.901","11.3451","0.226902","478.1"
"15.9699","652.421","11.3458","0.226916","479.1"
"16.0032","651.857","11.358","0.22716","480.1"
"16.0365","651.186","11.3574","0.227148","481.1"
"16.0699","650.896","11.3701","0.227402","482.1"
"16.1033","650.48","11.3707","0.227414","483.1"
"16.1366","649.949","11.3791","0.227582","484.1"
"16.1699","649.974","11.3803","0.227606","485.1"
"16.2032","649.318","11.3898","0.227796","486.1"
"16.2366","649.191","11.393","0.22786","487.1"
"16.2699","648.944","11.4005","0.22801","488.1"
"16.3032","648.419","11.4072","0.228144","489.1"
"16.3365","648.465","11.4128","0.228256","490.1"
"16.3699","648.172","11.4235","0.22847","491.1"
"16.4033","648.067","11.4287","0.228574","492.1"
"16.4366","647.693","11.4387","0.228774","493.1"
"16.4699","647.499","11.4422","0.228844","494.1"
"16.5032","647.151","11.4536","0.229072","495.1"
"16.5365","647.1","11.4569","0.229138","496.1"
"16.5698","646.968","11.4656","0.229312","497.1"
"16.6032","646.88","11.4745","0.22949","498.1"
"16.6366","646.811","11.48","0.2296","499.1"
"16.6699","646.687","11.4933","0.229866","500.1"
"16.7032","646.53","11.4966","0.229932","501.1"
"16.7365","645.976","11.5075","0.23015","502.1"
"16.7699","646.166","11.5139","0.230278","503.1"
"16.8032","646.284","11.5225","0.23045","504.1"
"16.8365","645.923","11.534","0.23068","505.1"
"16.8698","645.583","11.54","0.230774","506.1"
"16.9032","645.481","11.5513","0.231026","507.1"
"16.9366","645.152","11.5564","0.231128","508.1"
"16.9699","645.291","11.5699","0.231398","509.1"
"17.0032","644.948","11.5761","0.231522","510.1"
"17.0365","644.784","11.5859","0.231718","511.1"
"17.0699","644.998","11.598","0.23196","512.1"
"17.1032","644.655","11.6053","0.232106","513.1"
"17.1365","644.552","11.6191","0.232382","514.1"
"17.1699","644.656","11.6233","0.232466","515.1"
"17.2033","644.474","11.6381","0.232762","516.1"
"17.2366","644.314","11.6442","0.232884","517.1"
"17.2699","644.313","11.6591","0.233182","518.1"
"17.3032","644.179","11.6656","0.233312","519.1"
"17.3366","643.896","11.6745","0.23349","520.1"
"17.3699","643.88","11.6875","0.23375","521.1"
"17.4032","643.785","11.6939","0.233878","522.1"
"17.4366","643.891","11.7115","0.23423","523.1"
"17.4699","643.858","11.7181","0.234362","524.1"
"17.5033","643.903","11.7321","0.234642","525.1"
"17.5365","643.806","11.7457","0.234914","526.1"
"17.5698","644.026","11.7549","0.235098","527.1"
"17.6032","644.056","11.7726","0.235452","528.1"
"17.6365","644.013","11.7777","0.235554","529.1"
"17.6699","644.034","11.7956","0.235912","530.1"
"17.7032","644.317","11.8033","0.236066","531.1"
"17.7366","644.136","11.817","0.23634","532.1"
"17.7699","644.263","11.8319","0.236638","533.1"
"17.8032","644.427","11.8399","0.236798","534.1"
"17.8365","644.695","11.8585","0.23717","535.1"
"17.8699","644.628","11.8684","0.237368","536.1"
"17.9032","644.88","11.8852","0.237704","537.1"
"17.9365","645.226","11.9008","0.238016","538.1"
"17.9699","645.616","11.909","0.23818","539.1"
"18.0033","645.562","11.9244","0.238488","540.1"
"18.0367","645.988","11.9379","0.238758","541.1"
"18.0699","646.181","11.9494","0.238988","542.1"
"18.1032","646.308","11.9705","0.23941","543.1"
"18.1366","646.567","11.9794","0.239588","544.1"
"18.1699","646.672","11.9967","0.239934","545.1"
"18.2033","647.012","12.0137","0.240274","546.1"
"18.2365","647.277","12.0268","0.240536","547.1"
"18.2699","647.432","12.0454","0.240908","548.1"
"18.3033","647.834","12.0569","0.241138","549.1"
"18.3366","648.066","12.0747","0.241494","550.1"
"18.3699","648.065","12.0892","0.241784","551.1"
"18.4032","648.215","12.1017","0.242034","552.1"
"18.4366","648.413","12.1239","0.242478","553.1"
"18.4699","648.495","12.1356","0.242712","554.1"
"18.5032","648.925","12.1553","0.243106","555.1"
"18.5365","648.92","12.1706","0.243412","556.1"
"18.5699","649.184","12.1846","0.243692","557.1"
"18.6032","649.475","12.2038","0.244076","558.1"
"18.6365","649.499","12.219","0.24438","559.1"
"18.6698","649.822","12.2396","0.244792","560.1"
"18.7033","649.73","12.2511","0.245022","561.1"
"18.7366","649.938","12.2696","0.245392","562.1"
"18.7699","650.148","12.2882","0.245764","563.1"
"18.8032","650.277","12.3012","0.246024","564.1"
"18.8366","650.451","12.322","0.24644","565.1"
"18.8699","650.636","12.336","0.24672","566.1"
"18.9032","650.827","12.3562","0.247124","567.1"
"18.9365","650.846","12.3744","0.247488","568.1"
"18.9699","650.78","12.3883","0.247766","569.1"
"19.0033","650.927","12.4081","0.248162","570.1"
"19.0365","651.345","12.424","0.248454","571.1"
"19.0699","651.174","12.4421","0.248842","572.1"
"19.1032","651.353","12.4602","0.249204","573.1"
"19.1366","651.382","12.478","0.24956","574.1"
"19.1699","651.596","12.4983","0.249966","575.1"
"19.2032","651.626","12.514","0.25028","576.1"
"19.2365","651.507","12.5359","0.250718","577.1"
"19.27","651.647","12.5515","0.25103","578.1"
"19.3032","651.799","12.5665","0.25133","579.1"
"19.3366","651.665","12.592","0.25184","580.1"
"19.3699","652.004","12.6035","0.25207","581.1"
"19.4033","651.83","12.6289","0.252578","582.1"
"19.4366","651.877","12.6445","0.25289","583.1"
"19.4699","651.83","12.6627","0.253254","584.1"
"19.5032","652.057","12.6838","0.253676","585.1"
"19.5366","652.125","12.7011","0.254022","586.1"
"19.5699","652.077","12.7245","0.25449","587.1"
"19.6032","652.139","12.7386","0.254772","588.1"
"19.6365","652.268","12.7632","0.255264","589.1"
"19.6699","652.382","12.7791","0.255582","590.1"
"19.7032","652.454","12.7977","0.255954","591.1"
"19.7365","652.56","12.8188","0.256376","592.1"
"19.7698","652.666","12.8367","0.256734","593.1"
"19.8032","652.854","12.8591","0.257182","594.1"
"19.8366","652.765","12.877","0.25754","595.1"
"19.8699","652.834","12.895","0.2579","596.1"
"19.9032","653.035","12.9185","0.25837","597.1"
"19.9366","653.093","12.9339","0.258678","598.1"
"19.9699","653.162","12.9573","0.259146","599.1"
"20.0032","653.251","12.9729","0.259458","600.1"
"20.0365","653.615","12.9948","0.259896","601.1"
"20.0699","653.645","13.0171","0.260342","602.1"
"20.1033","653.707","13.0332","0.260664","603.1"
"20.1366","653.812","13.0589","0.261178","604.1"
"20.1699","653.767","13.0713","0.261426","605.1"
"20.2032","653.978","13.0958","0.261916","606.1"
"20.2366","654.14","13.1149","0.262298","607.1"
"20.2699","654.167","13.1344","0.262688","608.1"
"20.3032","654.34","13.1589","0.263178","609.1"
"20.3365","654.38","13.1746","0.263492","610.1"
"20.3699","654.729","13.1912","0.263824","611.1"
"20.4033","654.723","13.2146","0.264292","612.1"
"20.4365","654.739","13.2313","0.264626","613.1"
"20.4699","654.744","13.2521","0.265042","614.1"
"20.5033","654.912","13.2744","0.265488","615.1"
"20.5366","655.282","13.2913","0.265826","616.1"
"20.5699","655.199","13.316","0.26632","617.1"
"20.6032","655.195","13.3323","0.266646","618.1"
"20.6366","655.321","13.3549","0.267098","619.1"
"20.6699","655.255","13.3725","0.26745","620.1"
"20.7032","655.201","13.3896","0.267792","621.1"
"20.7365","655.314","13.4145","0.26829","622.1"
"20.7699","655.517","13.4291","0.268582","623.1"
"20.8032","655.489","13.4523","0.269046","624.1"
"20.8366","655.796","13.4711","0.269422","625.1"
"20.8699","655.695","13.4889","0.269778","626.1"
"20.9032","655.926","13.5123","0.270246","627.1"
"20.9366","655.722","13.5287","0.270574","628.1"
"20.9699","655.795","13.5515","0.27103","629.1"
"21.0032","655.957","13.5701","0.271402","630.1"
"21.0365","655.823","13.5907","0.271786","631.1"
"21.0699","656.166","13.6104","0.272208","632.1"
"21.1032","655.892","13.6272","0.272544","633.1"
"21.1365","655.902","13.6534","0.273068","634.1"
"21.1699","656.069","13.6677","0.273354","635.1"
"21.2033","655.938","13.6905","0.27381","636.1"
"21.2366","655.881","13.7107","0.274214","637.1"
"21.2698","655.474","13.7293","0.274586","638.1"
"21.3032","655.52","13.7533","0.275066","639.1"
"21.3366","655.44","13.7694","0.275388","640.1"
"21.3699","655.326","13.793","0.27586","641.1"
"21.4032","655.497","13.814","0.27628","642.1"
"21.4366","655.27","13.8333","0.276666","643.1"
"21.47","655.055","13.8563","0.277126","644.1"
"21.5033","654.852","13.8725","0.27745","645.1"
"21.5366","654.854","13.8982","0.277964","646.1"
"21.5699","654.645","13.9166","0.278332","647.1"
"21.6032","654.932","13.9392","0.278784","648.1"
"21.6366","654.433","13.9616","0.279232","649.1"
"21.6698","654.488","13.9827","0.279654","650.1"
"21.7032","654.069","14.0071","0.280142","651.1"
"21.7366","653.936","14.0259","0.280518","652.1"
"21.7699","653.579","14.0519","0.281038","653.1"
"21.8032","653.506","14.0715","0.28143","654.1"
"21.8365","653.215","14.095","0.2819","655.1"
"21.8699","652.716","14.1173","0.282346","656.1"
"21.9033","652.65","14.1395","0.28279","657.1"
"21.9365","652.567","14.1664","0.283328","658.1"
"21.9699","652.451","14.1861","0.283722","659.1"
"22.0033","652.17","14.2122","0.284244","660.1"
"22.0366","652.127","14.2348","0.284696","661.1"
"22.0699","651.958","14.2634","0.285268","662.1"
"22.1032","651.706","14.2855","0.28571","663.1"
"22.1366","651.544","14.3105","0.28621","664.1"
"22.17","651.16","14.3356","0.286712","665.1"
"22.2032","650.997","14.3588","0.287176","666.1"
"22.2366","650.651","14.3852","0.287704","667.1"
"22.2699","650.602","14.4104","0.288208","668.1"
"22.3033","650.586","14.4379","0.288758","669.1"
"22.3366","650.239","14.4626","0.289252","670.1"
"22.3698","650.057","14.4918","0.289836","671.1"
"22.4032","649.913","14.5188","0.290376","672.1"
"22.4366","649.718","14.5418","0.290836","673.1"
"22.4699","649.71","14.5733","0.291466","674.1"
"22.5032","649.286","14.599","0.29198","675.1"
"22.5366","649.221","14.632","0.29264","676.1"
"22.5699","649.022","14.6576","0.293152","677.1"
"22.6032","648.843","14.6908","0.293816","678.1"
"22.6365","648.518","14.7211","0.294422","679.1"
"22.6698","648.287","14.7512","0.295024","680.1"
"22.7032","648.116","14.7833","0.295666","681.1"
"22.7366","647.733","14.8135","0.29627","682.1"
"22.7699","647.885","14.8482","0.296964","683.1"
"22.8032","647.413","14.8819","0.297638","684.1"
"22.8366","647.168","14.9174","0.298348","685.1"
"22.8699","647.233","14.95","0.299","686.1"
"22.9032","646.736","14.9883","0.299766","687.1"
"22.9365","646.401","15.0251","0.300502","688.1"
"22.9699","646.184","15.0626","0.301252","689.1"
"23.0033","646.123","15.101","0.30202","690.1"
"23.0366","645.841","15.14","0.3028","691.1"
"23.0699","645.752","15.1762","0.303524","692.1"
"23.1032","645.415","15.2172","0.304344","693.1"
"23.1366","645.49","15.2577","0.305154","694.1"
"23.1699","645.003","15.2954","0.305908","695.1"
"23.2032","645.071","15.3376","0.306752","696.1"
"23.2366","644.847","15.3757","0.307514","697.1"
"23.2699","644.784","15.4157","0.308314","698.1"
"23.3033","644.653","15.46","0.3092","699.1"
"23.3365","644.481","15.5026","0.310052","700.1"
"23.3699","644.598","15.5401","0.310802","701.1"
"23.4032","644.152","15.5861","0.311722","702.1"
"23.4366","644.128","15.6291","0.312582","703.1"
"23.4699","643.871","15.6701","0.313402","704.1"
"23.5032","643.635","15.7197","0.314394","705.1"
"23.5366","643.702","15.7635","0.31527","706.1"
"23.5699","643.668","15.8091","0.316182","707.1"
"23.6032","643.742","15.855","0.3171","708.1"
"23.6365","643.456","15.9023","0.318046","709.1"
"23.6699","643.611","15.9484","0.318968","710.1"
"23.7032","643.305","15.9942","0.319884","711.1"
"23.7365","643.14","16.0446","0.320892","712.1"
"23.7698","643.215","16.088","0.32176","713.1"
"23.8032","643.263","16.1404","0.322808","714.1"
"23.8366","643.163","16.1864","0.323728","715.1"
"23.8698","643.158","16.2355","0.32471","716.1"
"23.9032","642.881","16.2809","0.325618","717.1"
"23.9365","642.89","16.3287","0.326574","718.1"
"23.9699","642.85","16.3808","0.327616","719.1"
"24.0032","642.737","16.4272","0.328544","720.1"
"24.0365","642.749","16.4794","0.329588","721.1"
"24.0699","642.737","16.5237","0.330474","722.1"
"24.1033","642.514","16.5766","0.331532","723.1"
"24.1366","642.492","16.6299","0.332598","724.1"
"24.1699","642.383","16.6764","0.333528","725.1"
"24.2032","642.136","16.7255","0.33451","726.1"
"24.2366","642.448","16.7756","0.335512","727.1"
"24.2699","642.019","16.827","0.33654","728.1"
"24.3032","641.99","16.8803","0.337606","729.1"
"24.3366","641.854","16.9321","0.338642","730.1"
"24.37","642.143","16.9807","0.339614","731.1"
"24.4033","642.021","17.0342","0.340684","732.1"
"24.4365","641.933","17.0819","0.341638","733.1"
"24.4699","642.051","17.1303","0.342606","734.1"
"24.5033","641.843","17.1853","0.343706","735.1"
"24.5366","641.971","17.2321","0.344642","736.1"
"24.5699","641.84","17.2834","0.345668","737.1"
"24.6032","641.961","17.3333","0.346666","738.1"
"24.6366","641.899","17.3856","0.347712","739.1"
"24.6699","642.133","17.4409","0.348818","740.1"
"24.7032","642.227","17.4874","0.349748","741.1"
"24.7365","642.258","17.5452","0.350904","742.1"
"24.7699","642.04","17.5922","0.351844","743.1"
"24.8032","642.001","17.6469","0.352938","744.1"
"24.8365","642.141","17.6939","0.353878","745.1"
"24.8699","641.793","17.747","0.35494","746.1"
"24.9033","642.021","17.7978","0.355956","747.1"
"24.9366","642.208","17.8475","0.35695","748.1"
"24.9699","641.99","17.902","0.35804","749.1"
"25.0032","642.232","17.955","0.3591","750.1"
"25.0366","641.986","18.0071","0.360142","751.1"
"25.0699","642.081","18.0606","0.361212","752.1"
"25.1032","642.131","18.1095","0.36219","753.1"
"25.1365","642.034","18.1712","0.363424","754.1"
"25.1699","641.905","18.2214","0.364428","755.1"
"25.2032","641.856","18.277","0.36554","756.1"
"25.2365","641.855","18.3271","0.366542","757.1"
"25.2698","641.776","18.3838","0.367676","758.1"
"25.3032","641.656","18.44","0.3688","759.1"
"25.3366","641.541","18.4941","0.369882","760.1"
"25.3699","641.431","18.5518","0.371036","761.1"
"25.4032","641.365","18.6028","0.372056","762.1"
"25.4366","641.353","18.6576","0.373152","763.1"
"25.4699","640.867","18.7174","0.374348","764.1"
"25.5033","640.648","18.769","0.37538","765.1"
"25.5365","640.683","18.8205","0.37641","766.1"
"25.5699","640.432","18.8829","0.377538","767.1"
"25.6033","640.376","18.9359","0.378718","768.1"
"25.6366","639.88","18.9954","0.379908","769.1"
"25.6699","640.104","19.0481","0.380962","770.1"
"25.7032","639.982","19.1101","0.382202","771.1"
"25.7366","639.659","19.1658","0.383316","772.1"
"25.7699","639.552","19.2216","0.384432","773.1"
"25.8032","639.163","19.2777","0.385554","774.1"
"25.8365","638.909","19.3339","0.386678","775.1"
"25.8699","638.905","19.3945","0.38789","776.1"
"25.9032","638.98","19.4505","0.38901","777.1"
"25.9365","639.203","19.5097","0.390194","778.1"
"25.9699","638.69","19.5654","0.391308","779.1"
"26.0032","638.738","19.6234","0.392468","780.1"
"26.0366","638.634","19.681","0.39362","781.1"
"26.0699","638.634","19.7378","0.394756","782.1"
"26.1032","638.464","19.7976","0.395952","783.1"
"26.1366","638.46","19.8531","0.397062","784.1"
"26.1699","638.335","19.9133","0.398266","785.1"
"26.2033","638.329","19.9692","0.399384","786.1"
"26.2365","638.234","20.0281","0.400562","787.1"
"26.2699","638.318","20.0834","0.401668","788.1"
"26.3033","638.259","20.1415","0.40283","789.1"
"26.3366","638.345","20.2007","0.404014","790.1"
"26.3699","638.276","20.2558","0.405116","791.1"
"26.4032","638.386","20.3144","0.406288","792.1"
"26.4366","638.248","20.3683","0.407366","793.1"
"26.4699","638.555","20.4275","0.40855","794.1"
"26.5032","638.615","20.4852","0.409704","795.1"
"26.5366","638.778","20.5404","0.410808","796.1"
"26.5699","638.951","20.5985","0.41197","797.1"
"26.6032","639.188","20.6538","0.413076","798.1"
"26.6366","639.161","20.7136","0.414272","799.1"
"26.6699","639.241","20.7715","0.41543","800.1"
"26.7032","639.476","20.823","0.41646","801.1"
"26.7366","639.691","20.882","0.41764","802.1"
"26.7698","640.011","20.9348","0.418696","803.1"
"26.8032","639.917","20.9928","0.419856","804.1"
"26.8365","640.214","21.047","0.42094","805.1"
"26.8699","640.633","21.1054","0.422108","806.1"
"26.9032","641.096","21.1641","0.423282","807.1"
"26.9365","641.058","21.2152","0.424304","808.1"
"26.97","641.45","21.2754","0.425508","809.1"
"27.0033","641.588","21.3276","0.426552","810.1"
"27.0365","641.903","21.3862","0.427724","811.1"
"27.0699","642.092","21.4428","0.428856","812.1"
"27.1032","642.485","21.4947","0.429894","813.1"
"27.1366","642.709","21.5576","0.431152","814.1"
"27.1699","642.936","21.6069","0.432138","815.1"
"27.2032","643.151","21.6653","0.433306","816.1"
"27.2366","643.517","21.7202","0.434404","817.1"
"27.27","643.739","21.7751","0.435502","818.1"
"27.3032","643.876","21.8345","0.43669","819.1"
"27.3365","644.124","21.8839","0.437678","820.1"
"27.3699","644.565","21.9426","0.438852","821.1"
"27.4032","644.793","21.9989","0.439978","822.1"
"27.4366","645.294","22.0537","0.441074","823.1"
"27.4699","645.145","22.1116","0.442232","824.1"
"27.5032","645.45","22.1665","0.44333","825.1"
"27.5366","645.692","22.2241","0.444482","826.1"
"27.5699","646.013","22.2813","0.44549","827.1"
"27.6032","646.156","22.335","0.4467","828.1"
"27.6366","646.447","22.3889","0.447778","829.1"
"27.6699","646.525","22.4437","0.448874","830.1"
"27.7032","646.883","22.5076","0.450026","831.1"
"27.7365","647.234","22.5643","0.451196","832.1"
"27.7699","647.362","22.6126","0.452252","833.1"
"27.8033","647.794","22.6726","0.453452","834.1"
"27.8366","647.832","22.7292","0.454584","835.1"
"27.8698","648.182","22.7857","0.455714","836.1"
"27.9032","648.144","22.8421","0.456842","837.1"
"27.9365","648.608","22.894","0.45788","838.1"
"27.9699","648.816","22.9551","0.459102","839.1"
"28.0032","648.957","23.0086","0.460172","840.1"
"28.0365","649.271","23.0678","0.461356","841.1"
"28.0699","649.592","23.1228","0.462456","842.1"
"28.1033","649.556","23.1799","0.463598","843.1"
"28.1365","649.9","23.2395","0.46479","844.1"
"28.1698","650.035","23.2934","0.465868","845.1"
"28.2032","650.239","23.3483","0.466966","846.1"
"28.2366","650.595","23.4061","0.468122","847.1"
"28.2699","650.656","23.4626","0.469252","848.1"
"28.3032","650.907","23.5189","0.470378","849.1"
"28.3366","651.055","23.5716","0.471432","850.1"
"28.37","651.182","23.6272","0.472544","851.1"
"28.4032","651.333","23.6938","0.473876","852.1"
"28.4365","651.539","23.7431","0.474862","853.1"
"28.4699","651.659","23.8018","0.476036","854.1"
"28.5033","651.947","23.8608","0.477216","855.1"
"28.5366","652.319","23.9138","0.478276","856.1"
"28.5699","652.366","23.9761","0.479522","857.1"
"28.6032","652.622","24.0305","0.48061","858.1"
"28.6366","652.582","24.0908","0.481816","859.1"
"28.6699","652.742","24.1464","0.482928","860.1"
"28.7032","652.765","24.2018","0.484036","861.1"
"28.7365","652.895","24.2656","0.485312","862.1"
"28.7699","653.049","24.3195","0.48639","863.1"
"28.8032","653.426","24.3777","0.487554","864.1"
"28.8365","653.518","24.4329","0.488658","865.1"
"28.8699","653.744","24.4894","0.489788","866.1"
"28.9032","653.736","24.548","0.49096","867.1"
"28.9366","653.64","24.6005","0.49201","868.1"
"28.9698","653.839","24.6636","0.493272","869.1"
"29.0032","653.717","24.7206","0.494412","870.1"
"29.0366","653.866","24.7763","0.495526","871.1"
"29.0699","654.089","24.8327","0.496654","872.1"
"29.1033","654.028","24.8891","0.497782","873.1"
"29.1366","654.208","24.9496","0.498992","874.1"
"29.1699","654.235","25.0082","0.500164","875.1"
"29.2033","654.392","25.0648","0.501296","876.1"
"29.2365","654.4","25.1204","0.502408","877.1"
"29.2699","654.636","25.1788","0.503576","878.1"
"29.3032","654.474","25.2341","0.504682","879.1"
"29.3366","654.734","25.2919","0.505838","880.1"
"29.3699","655.012","25.3532","0.507064","881.1"
"29.4032","654.858","25.4101","0.508202","882.1"
"29.4365","655.112","25.4664","0.509328","883.1"
"29.4699","655.297","25.5234","0.510468","884.1"
"29.5032","655.132","25.5797","0.511594","885.1"
"29.5365","655.535","25.6385","0.51277","886.1"
"29.5699","655.573","25.6946","0.513892","887.1"
"29.6033","655.833","25.7518","0.515036","888.1"
"29.6366","655.938","25.8106","0.516212","889.1"
"29.6699","656.063","25.8631","0.517262","890.1"
"29.7032","656.082","25.926","0.51852","891.1"
"29.7366","656.118","25.9807","0.519614","892.1"
"29.7699","656.277","26.0317","0.520634","893.1"
"29.8032","656.426","26.0921","0.521842","894.1"
"29.8365","656.559","26.1411","0.522822","895.1"
"29.8699","656.514","26.2076","0.524152","896.1"
"29.9033","656.744","26.253","0.52506","897.1"
"29.9365","656.871","26.3133","0.526266","898.1"
"29.9698","657.099","26.3666","0.527332","899.1"
"30.0032","657.375","26.4219","0.528438","900.1"
"30.0366","657.524","26.4787","0.529574","901.1"
"30.0699","657.559","26.533","0.53066","902.1"
"30.1032","657.914","26.5901","0.531802","903.1"
"30.1366","657.841","26.643","0.53286","904.1"
"30.17","658.33","26.7014","0.534028","905.1"
"30.2032","658.397","26.7567","0.535134","906.1"
"30.2365","658.832","26.8087","0.536174","907.1"
"30.2699","659.013","26.8632","0.537264","908.1"
"30.3032","659.35","26.9208","0.538416","909.1"
"30.3366","659.429","26.9744","0.539488","910.1"
"30.3699","659.934","27.0286","0.540572","911.1"
"30.4033","660.124","27.0782","0.541564","912.1"
"30.4367","660.423","27.138","0.54276","913.1"
"30.4699","660.573","27.1885","0.54377","914.1"
"30.5032","660.927","27.2432","0.544864","915.1"
"30.5366","661.186","27.3016","0.546032","916.1"
"30.5699","661.528","27.3514","0.547028","917.1"
"30.6033","661.481","27.407","0.54814","918.1"
"30.6365","662.044","27.4598","0.549196","919.1"
"30.6699","662.088","27.5131","0.550262","920.1"
"30.7033","662.416","27.5686","0.551372","921.1"
"30.7365","662.723","27.6207","0.552414","922.1"
"30.7698","662.828","27.6754","0.553508","923.1"
"30.8032","663.121","27.7274","0.554548","924.1"
"30.8365","663.358","27.7863","0.555726","925.1"
"30.8699","663.478","27.8379","0.556758","926.1"
"30.9032","663.76","27.8878","0.557756","927.1"
"30.9365","663.854","27.9427","0.558854","928.1"
"30.9699","664.29","27.9941","0.559882","929.1"
"31.0032","664.352","28.0521","0.561042","930.1"
"31.0365","664.821","28.1047","0.562094","931.1"
"31.0698","664.797","28.1565","0.56313","932.1"
"31.1033","664.923","28.2123","0.564246","933.1"
"31.1366","665.388","28.2608","0.565216","934.1"
"31.1699","665.534","28.3204","0.566408","935.1"
"31.2032","665.863","28.3734","0.567468","936.1"
"31.2366","665.964","28.4261","0.568522","937.1"
"31.2699","666.297","28.4814","0.569628","938.1"
"31.3032","666.06","28.5326","0.570652","939.1"
"31.3365","666.55","28.5909","0.571818","940.1"
"31.3699","666.574","28.6409","0.572818","941.1"
"31.4033","666.962","28.6928","0.573856","942.1"
"31.4366","667.186","28.7499","0.574998","943.1"
"31.4699","667.61","28.7967","0.575934","944.1"
"31.5032","667.533","28.8505","0.57701","945.1"
"31.5366","667.892","28.9051","0.578102","946.1"
"31.5699","668.008","28.9558","0.579116","947.1"
"31.6032","668.611","29.0103","0.580206","948.1"
"31.6366","668.527","29.0599","0.581198","949.1"
"31.6699","668.925","29.1122","0.582244","950.1"
"31.7032","669.256","29.1658","0.583316","951.1"
"31.7365","669.263","29.2139","0.584278","952.1"
"31.7699","669.621","29.2703","0.585406","953.1"
"31.8032","669.947","29.321","0.58631","954.1"
"31.8366","669.944","29.373","0.58746","955.1"
"31.8698","670.439","29.425","0.5885","956.1"
"31.9032","670.51","29.4689","0.589378","957.1"
"31.9366","670.771","29.531","0.59062","958.1"
"31.9699","670.783","29.5727","0.591454","959.1"
"32.0032","671.15","29.6243","0.592486","960.1"
"32.0365","671.35","29.6767","0.593534","961.1"
"32.0699","671.631","29.7278","0.594556","962.1"
"32.1032","671.844","29.7792","0.595584","963.1"
"32.1365","671.954","29.8323","0.596646","964.1"
"32.1698","671.986","29.8866","0.597732","965.1"
"32.2032","672.311","29.934","0.59868","966.1"
"32.2366","672.499","29.9868","0.599736","967.1"
"32.2699","672.632","30.0372","0.600744","968.1"
"32.3032","672.532","30.09","0.6018","969.1"
"32.3366","672.71","30.1403","0.602806","970.1"
"32.3699","673.007","30.1903","0.603806","971.1"
"32.4032","673.233","30.2435","0.60487","972.1"
"32.4365","673.02","30.294","0.60588","973.1"
"32.4699","673.351","30.3446","0.606892","974.1"
"32.5033","673.478","30.3967","0.607934","975.1"
"32.5366","673.571","30.4467","0.608934","976.1"
"32.5699","673.619","30.4957","0.609914","977.1"
"32.6032","673.725","30.5503","0.611006","978.1"
"32.6366","674.008","30.5972","0.611944","979.1"
"32.6699","674.138","30.6482","0.612964","980.1"
"32.7032","674.204","30.7","0.614","981.1"
"32.7366","674.228","30.7515","0.61503","982.1"
"32.7699","674.426","30.8022","0.616044","983.1"
"32.8032","674.442","30.8523","0.617046","984.1"
"32.8365","674.658","30.9064","0.618128","985.1"
"32.8698","674.569","30.9552","0.619104","986.1"
"32.9032","674.841","31.004","0.62008","987.1"
"32.9365","674.824","31.0546","0.621092","988.1"
"32.9698","674.949","31.1039","0.622078","989.1"
"33.0032","675.028","31.1535","0.62307","990.1"
"33.0366","675.326","31.2027","0.624054","991.1"
"33.0699","675.198","31.2579","0.625158","992.1"
"33.1032","675.315","31.304","0.62608","993.1"
"33.1365","675.312","31.3548","0.627096","994.1"
"33.1699","675.326","31.4049","0.628098","995.1"
"33.2033","675.663","31.454","0.62908","996.1"
"33.2366","675.795","31.5042","0.630084","997.1"
"33.2699","675.727","31.5522","0.631044","998.1"
"33.2765","675.803","31.5637","0.631274","998.3"