File: experimental_data/tensile_specimen_test_data/tensile_test_data/20250312/original_data/without_extensometer/SSS 6 03-12-25 20 02 49 下午/数采：横梁, … - (实时值).csv
"文件路径: C:\Users\Lenovo\Desktop\Wayne\20250312\原始数据\无引伸计\SSS 6 03-12-25 20 02 49 下午\数采：横梁, … - (实时值).csv   "
"试验: MTS EM 拉伸试验-W 3"
"试验运行: SSS 6"
"日期: 2025/3/12 19:28:29"
""
""
"横梁 ","力 ","应变 ","应力 ","时间 "
"mm","N","mm/mm","N/mm²","sec"
"0.00270132","67.0809","2.21229e-05","3.44005","0.112"
"0.026594","212.719","0.000221229","10.9086","0.812"
"0.0499278","358.854","0.000415677","18.4028","1.512"
"0.0732151","499.3","0.000610126","25.60515","2.212"
"0.0965955","634.094","0.000804962","32.5176","2.912"
"0.119929","762.713","0.000999023","39.1135","3.612"
"0.143217","886.742","0.00119347","45.47394","4.312"
"0.166597","1006.69","0.00138792","51.6252","5.012"
"0.189977","1123.39","0.00158276","57.6096","5.712"
"0.213218","1236.68","0.00177682","63.41974","6.412"
"0.236552","1346.17","0.00197126","69.03432","7.112"
"0.259979","1451.37","0.0021661","74.4292","7.812"
"0.283219","1552.55","0.00235977","79.6182","8.512"
"0.3066","1650.28","0.00255461","84.6296","9.212"
"0.32998","1743.61","0.00274945","89.416","9.912"
"0.353221","1830.94","0.00294312","93.8946","10.612"
"0.376601","1914.09","0.00313796","98.15828","11.312"
"0.399935","1992.01","0.00333279","102.155","12.012"
"0.423222","2063","0.00352685","105.795","12.712"
"0.446649","2128.88","0.00372169","109.173","13.412"
"0.469936","2189.68","0.00391575","112.292","14.112"
"0.493224","2246.75","0.00410981","115.218","14.812"
"0.516604","2301.4","0.00430465","118.02","15.512"
"0.539984","2353.29","0.00449948","120.681","16.212"
"0.563272","2400.97","0.00469354","123.127","16.912"
"0.586559","2446.68","0.00488799","125.471","17.612"
"0.609986","2490.89","0.00508283","127.738","18.312"
"0.633227","2532.5","0.00527689","129.872","19.012"
"0.65656","2573.59","0.00547134","131.979","19.712"
"0.679987","2613.84","0.00566617","134.043","20.412"
"0.703228","2651.58","0.00585985","135.979","21.112"
"0.726608","2688.25","0.00605468","137.859","21.812"
"0.749989","2724.05","0.00624952","139.695","22.512"
"0.77323","2757.33","0.00644319","141.401","23.212"
"0.79661","2791.14","0.00663803","143.136","23.912"
"0.819944","2823.51","0.00683248","144.796","24.612"
"0.843231","2854.22","0.00702654","146.37","25.312"
"0.866611","2885.19","0.00722176","147.958","26.012"
"0.889992","2914.84","0.00741621","149.479","26.712"
"0.913232","2942.73","0.00760988","150.909","27.412"
"0.936566","2970.45","0.00780433","152.331","28.112"
"0.959947","2997.09","0.00799956","153.697","28.812"
"0.98328","3022.61","0.00819361","155.006","29.512"
"1.00657","3047.91","0.00838806","156.303","30.212"
"1.02995","3072.19","0.0085829","157.548","30.912"
"1.05324","3095.38","0.00877696","158.738","31.612"
"1.07657","3117.53","0.00897102","159.8732","32.312"
"1.09995","3140.02","0.00916625","161.026","33.012"
"1.12324","3160.56","0.00935992","162.08","33.712"
"1.14662","3181.65","0.00955475","163.161","34.412"
"1.16995","3201.87","0.00974959","164.198","35.112"
"1.19324","3220.07","0.00994326","165.132","35.812"
"1.21657","3239.4","0.0101377","166.123","36.512"
"1.24","3258.07","0.0103329","167.08","37.212"
"1.26324","3275.36","0.0105266","167.967","37.912"
"1.28657","3292.61","0.0107214","168.852","38.612"
"1.30995","3309.34","0.0109159","169.71","39.312"
"1.33329","3325.11","0.0111103","170.518","40.012"
"1.35657","3341.4","0.0113044","171.354","40.712"
"1.37991","3356.43","0.0114992","172.124","41.412"
"1.40329","3371.37","0.0116937","172.891","42.112"
"1.42658","3385.52","0.0118877","173.617","42.812"
"1.44996","3400.13","0.0120826","174.366","43.512"
"1.47329","3413.77","0.012277","175.065","44.212"
"1.49658","3426.69","0.0124711","175.728","44.912"
"1.51996","3439.83","0.0126659","176.401","45.612"
"1.54325","3452.3","0.01286","177.041","46.312"
"1.56658","3465.1","0.0130548","177.698","47.012"
"1.59001","3477.84","0.0132497","178.351","47.712"
"1.61325","3488.72","0.0134433","178.909","48.412"
"1.63653","3500.15","0.0136378","179.495","49.112"
"1.65996","3511.89","0.0138326","180.097","49.812"
"1.68329","3522.89","0.0140271","180.661","50.512"
"1.70658","3533.47","0.0142215","181.204","51.212"
"1.72992","3544.4","0.014416","181.764","51.912"
"1.75325","3554.44","0.0146104","182.279","52.612"
"1.77658","3564.44","0.0148045","182.792","53.312"
"1.79996","3574.9","0.0149993","183.328","54.012"
"1.82325","3584.15","0.0151938","183.803","54.712"
"1.84658","3593.6","0.0153878","184.287","55.412"
"1.86997","3603.07","0.0155827","184.773","56.112"
"1.89325","3612.06","0.0157771","185.234","56.812"
"1.91654","3621.09","0.0159708","185.697","57.512"
"1.94001","3630.45","0.0161664","186.177","58.212"
"1.96325","3638.71","0.0163601","186.6","58.912"
"1.98654","3646.77","0.0165545","187.014","59.612"
"2.01001","3655.83","0.0167497","187.479","60.312"
"2.03326","3664.07","0.0169438","187.901","61.012"
"2.05654","3671.56","0.0171375","188.285","61.712"
"2.07992","3680","0.0173327","188.718","62.412"
"2.10326","3687.58","0.0175271","189.107","63.112"
"2.12659","3695.52","0.0177212","189.514","63.812"
"2.14997","3703.85","0.017916","189.941","64.512"
"2.17326","3710.85","0.0181101","190.3","65.212"
"2.19659","3718.04","0.0183045","190.669","65.912"
"2.21993","3725.58","0.018499","191.055","66.612"
"2.24331","3732.59","0.0186938","191.415","67.312"
"2.26655","3739.8","0.0188879","191.785","68.012"
"2.28997","3746.9","0.0190827","192.149","68.712"
"2.31326","3753.73","0.0192772","192.499","69.412"
"2.33655","3759.91","0.0194709","192.816","70.112"
"2.35998","3767.53","0.0196661","193.207","70.812"
"2.38331","3774.41","0.0198605","193.56","71.512"
"2.40655","3780.42","0.0200546","193.868","72.212"
"2.42998","3787.39","0.0202494","194.225","72.912"
"2.45326","3793.64","0.0204435","194.5456","73.612"
"2.4766","3799.99","0.0206379","194.871","74.312"
"2.49993","3806.87","0.0208324","195.224","75.012"
"2.52322","3812.58","0.0210268","195.517","75.712"
"2.5466","3818.69","0.0212217","195.83","76.412"
"2.56993","3825.34","0.0214157","196.172","77.112"
"2.59327","3831.57","0.0216106","196.491","77.812"
"2.6166","3837.32","0.0218046","196.786","78.512"
"2.63993","3843.5","0.0219991","197.103","79.212"
"2.66327","3849.1","0.0221939","197.39","79.912"
"2.68656","3854.91","0.0223876","197.688","80.612"
"2.70998","3861.14","0.0225828","198.007","81.312"
"2.73332","3867.19","0.0227776","198.317","82.012"
"2.75651","3872.22","0.0229709","198.575","82.712"
"2.77994","3878.18","0.0231658","198.881","83.412"
"2.80332","3883.89","0.0233606","199.174","84.112"
"2.82661","3889.36","0.0235547","199.455","84.812"
"2.84999","3895.11","0.0237495","199.749","85.512"
"2.87327","3900.38","0.0239436","200.019","86.212"
"2.89656","3905.58","0.0241376","200.286","86.912"
"2.91994","3911.25","0.0243324","200.577","87.612"
"2.94327","3916.68","0.0245273","200.855","88.312"
"2.96656","3921.78","0.0247213","201.117","89.012"
"2.98994","3927.44","0.0249158","201.407","89.712"
"3.01328","3932.47","0.0251106","201.665","90.412"
"3.03656","3937.64","0.0253043","201.93","91.112"
"3.0599","3942.76","0.0254991","202.193","91.812"
"3.08332","3948.65","0.025694","202.495","92.512"
"3.10652","3953.01","0.0258876","202.719","93.212"
"3.12994","3958.07","0.0260825","202.978","93.912"
"3.15333","3963.96","0.0262777","203.28","94.612"
"3.17657","3968.28","0.026471","203.5016","95.312"
"3.1999","3973.32","0.0266658","203.76","96.012"
"3.22328","3978.48","0.0268603","204.025","96.712"
"3.24657","3983.03","0.0270547","204.258","97.412"
"3.26995","3988.52","0.0272496","204.539","98.112"
"3.29328","3993.38","0.0274436","204.789","98.812"
"3.31652","3997.4","0.0276377","204.995","99.512"
"3.33995","4002.32","0.0278325","205.247","100.212"
"3.36328","4007.52","0.028027","205.514","100.912"
"3.38657","4012.14","0.0282214","205.751","101.612"
"3.40995","4017.09","0.0284159","206.004","102.312"
"3.43328","4022.28","0.0286107","206.271","103.012"
"3.45657","4026.42","0.0288044","206.483","103.712"
"3.47991","4030.92","0.0289988","206.714","104.412"
"3.50333","4036.28","0.029194","206.989","105.112"
"3.52657","4040.36","0.0293877","207.198","105.812"
"3.54995","4045.09","0.0295826","207.44","106.512"
"3.57329","4049.77","0.0297774","207.681","107.212"
"3.59657","4053.96","0.0299711","207.895","107.912"
"3.61995","4058.75","0.0301659","208.141","108.612"
"3.64329","4063.17","0.0303604","208.368","109.312"
"3.66653","4067.03","0.0305544","208.566","110.012"
"3.68996","4072.2","0.0307496","208.831","110.712"
"3.71329","4076.79","0.0309437","209.066","111.412"
"3.73658","4080.61","0.0311378","209.262","112.112"
"3.75991","4085.5","0.0313326","209.513","112.812"
"3.78329","4090.05","0.031527","209.746","113.512"
"3.80658","4093.73","0.0317215","209.935","114.212"
"3.82991","4098.46","0.0319155","210.177","114.912"
"3.85329","4102.94","0.0321108","210.407","115.612"
"3.87658","4106.53","0.0323048","210.591","116.312"
"3.89987","4110.94","0.0324989","210.817","117.012"
"3.92329","4115.24","0.0326937","211.038","117.712"
"3.94658","4119.46","0.0328882","211.254","118.412"
"3.96992","4123.75","0.0330822","211.474","119.112"
"3.9933","4127.96","0.0332775","211.69","119.812"
"4.01654","4131.31","0.0334711","211.862","120.512"
"4.03992","4135.78","0.0336656","212.091","121.212"
"4.0633","4140","0.0338604","212.308","121.912"
"4.08658","4144.04","0.0340545","212.515","122.612"
"4.10992","4148.1","0.0342489","212.723","123.312"
"4.1333","4152.19","0.0344438","212.933","124.012"
"4.15659","4155.94","0.0346378","213.125","124.712"
"4.17987","4160","0.0348323","213.333","125.412"
"4.2033","4163.95","0.0350271","213.536","126.112"
"4.22663","4167.76","0.0352216","213.731","126.812"
"4.24987","4171.26","0.0354156","213.911","127.512"
"4.2733","4175.35","0.0356105","214.12","128.212"
"4.29664","4179.58","0.0358049","214.338","128.912"
"4.31988","4182.98","0.0359986","214.512","129.612"
"4.3433","4186.97","0.0361938","214.717","130.312"
"4.36659","4190.59","0.0363879","214.902","131.012"
"4.38992","4194.36","0.0365827","215.095","131.712"
"4.4133","4198.78","0.0367775","215.322","132.412"
"4.43655","4201.93","0.0369712","215.484","133.112"
"4.45988","4205.36","0.0371653","215.66","133.812"
"4.48331","4209.97","0.0373609","215.896","134.512"
"4.50659","4213.34","0.0375546","216.069","135.212"
"4.52993","4217.06","0.037749","216.26","135.912"
"4.55331","4221.23","0.0379438","216.474","136.612"
"4.57659","4224.22","0.0381379","216.627","137.312"
"4.59988","4227.41","0.0383324","216.79","138.012"
"4.62326","4231.71","0.0385272","217.011","138.712"
"4.6466","4235.44","0.0387216","217.202","139.412"
"4.66988","4238.52","0.0389157","217.36","140.112"
"4.69331","4242.6","0.0391105","217.569","140.812"
"4.7166","4245.45","0.0393046","217.715","141.512"
"4.73988","4248.91","0.039499","217.893","142.212"
"4.76331","4253.04","0.0396939","218.105","142.912"
"4.78655","4255.9","0.0398879","218.251","143.612"
"4.80989","4259.37","0.0400824","218.429","144.312"
"4.83336","4263.82","0.0402776","218.6572","145.012"
"4.8566","4266.29","0.0404713","218.784","145.712"
"4.87989","4269.65","0.0406653","218.956","146.412"
"4.90331","4273.69","0.0408606","219.164","147.112"
"4.9266","4276.71","0.0410546","219.319","147.812"
"4.94994","4279.91","0.0412491","219.483","148.512"
"4.97327","4283.88","0.0414435","219.686","149.212"
"4.9966","4286.87","0.0416384","219.84","149.912"
"5.01989","4289.99","0.041832","220","150.612"
"5.04327","4293.48","0.0420269","220.179","151.312"
"5.0666","4296.46","0.0422213","220.331","152.012"
"5.08994","4299.9","0.0424158","220.508","152.712"
"5.11327","4303.39","0.0426106","220.6868","153.412"
"5.13661","4306.47","0.0428047","220.845","154.112"
"5.15989","4309.06","0.0429987","220.977","154.812"
"5.18332","4312.81","0.0431939","221.17","155.512"
"5.20661","4315.85","0.043388","221.325","156.212"
"5.2299","4318.95","0.0435825","221.485","156.912"
"5.25332","4322.34","0.0437773","221.658","157.612"
"5.27661","4324.81","0.0439714","221.785","158.312"
"5.2999","4327.76","0.0441654","221.936","159.012"
"5.32328","4331.6","0.0443603","222.133","159.712"
"5.34661","4334.53","0.0445547","222.283","160.412"
"5.3699","4337.43","0.0447491","222.432","161.112"
"5.39328","4340.37","0.0449436","222.583","161.812"
"5.41661","4343.49","0.045138","222.743","162.512"
"5.4399","4346.58","0.0453325","222.902","163.212"
"5.46323","4349.38","0.0455269","223.045","163.912"
"5.48661","4352.46","0.0457218","223.203","164.612"
"5.5099","4354.95","0.0459155","223.331","165.312"
"5.53333","4358.07","0.0461107","223.491","166.012"
"5.55666","4361.17","0.0463051","223.65","166.712"
"5.57986","4363.89","0.0464984","223.789","167.412"
"5.60328","4366.77","0.0466936","223.937","168.112"
"5.62662","4369.81","0.0468885","224.093","168.812"
"5.6499","4372.27","0.0470821","224.219","169.512"
"5.67333","4375.45","0.0472774","224.382","170.212"
"5.69662","4378.05","0.0474714","224.515","170.912"
"5.71986","4380.26","0.0476655","224.629","171.612"
"5.74329","4383.32","0.0478603","224.786","172.312"
"5.76662","4386.34","0.0480548","224.94","173.012"
"5.78991","4389.03","0.0482492","225.078","173.712"
"5.81329","4392.11","0.0484437","225.236","174.412"
"5.83662","4394.7","0.0486381","225.369","175.112"
"5.85991","4396.56","0.0488322","225.464","175.812"
"5.88329","4399.72","0.049027","225.627","176.512"
"5.90662","4402.74","0.0492215","225.781","177.212"
"5.92986","4404.64","0.0494151","225.879","177.912"
"5.95329","4407.81","0.0496104","226.042","178.612"
"5.97667","4410.72","0.0498052","226.191","179.312"
"5.99986","4412.47","0.0499985","226.281","180.012"
"6.02329","4415.64","0.0501937","226.443","180.712"
"6.04662","4418.52","0.0503882","226.591","181.412"
"6.06991","4420.11","0.0505822","226.672","182.112"
"6.09329","4423.37","0.0507774","226.839","182.812"
"6.11658","4425.92","0.0509715","226.97","183.512"
"6.13991","4428.05","0.0511656","227.08","184.212"
"6.16325","4430.92","0.05136","227.2264","184.912"
"6.18658","4433.03","0.0515548","227.335","185.612"
"6.20992","4435.54","0.0517493","227.464","186.312"
"6.2333","4438.46","0.0519437","227.614","187.012"
"6.25663","4440.94","0.0521382","227.74","187.712"
"6.27992","4443.04","0.0523322","227.848","188.412"
"6.30325","4445.33","0.0525267","227.966","189.112"
"6.32663","4448.01","0.0527219","228.103","189.812"
"6.34992","4450.21","0.0529156","228.216","190.512"
"6.37325","4452.86","0.05311","228.352","191.212"
"6.39663","4455.48","0.0533053","228.486","191.912"
"6.41992","4457.08","0.0534989","228.568","192.612"
"6.44325","4459.92","0.0536934","228.714","193.312"
"6.46663","4462.4","0.0538882","228.841","194.012"
"6.48992","4464.53","0.0540823","228.95","194.712"
"6.5133","4467.11","0.0542771","229.083","195.412"
"6.53659","4468.94","0.0544716","229.176","196.112"
"6.55992","4471.13","0.0546656","229.289","196.812"
"6.58326","4474.03","0.0548605","229.438","197.512"
"6.60659","4476.17","0.0550549","229.547","198.212"
"6.62992","4478.23","0.055249","229.653","198.912"
"6.65326","4480.28","0.0554434","229.758","199.612"
"6.67668","4483.04","0.0556386","229.899","200.312"
"6.69993","4485.25","0.0558323","230.013","201.012"
"6.72321","4487.01","0.0560264","230.103","201.712"
"6.74664","4489.46","0.056222","230.229","202.412"
"6.76993","4491.61","0.0564157","230.339","203.112"
"6.79326","4493.8","0.0566101","230.451","203.812"
"6.81664","4496.33","0.0568053","230.581","204.512"
"6.83988","4498.14","0.056999","230.6736","205.212"
"6.86322","4500.08","0.0571935","230.773","205.912"
"6.88664","4502.84","0.0573883","230.915","206.612"
"6.90993","4504.55","0.0575824","231.003","207.312"
"6.93326","4506.68","0.0577772","231.112","208.012"
"6.9566","4509.1","0.0579716","231.236","208.712"
"6.97988","4510.48","0.0581657","231.307","209.412"
"7.00322","4512.61","0.0583602","231.416","210.112"
"7.02665","4515.27","0.058555","231.552","210.812"
"7.04993","4517.11","0.058749","231.647","211.512"
"7.07322","4518.83","0.0589431","231.735","212.212"
"7.09665","4521.18","0.0591383","231.856","212.912"
"7.11993","4522.79","0.0593328","231.938","213.612"
"7.14322","4524.59","0.0595265","232.03","214.312"
"7.16665","4527.32","0.0597217","232.17","215.012"
"7.18994","4528.57","0.0599157","232.234","215.712"
"7.21327","4530.36","0.0601102","232.326","216.412"
"7.23665","4533","0.0603054","232.462","217.112"
"7.25989","4534.38","0.0604987","232.532","217.812"
"7.28327","4536.36","0.0606935","232.634","218.512"
"7.3066","4538.54","0.060888","232.745","219.212"
"7.32989","4540.01","0.061082","232.821","219.912"
"7.35327","4542.09","0.0612769","232.928","220.612"
"7.37665","4544.77","0.0614717","233.065","221.312"
"7.39989","4545.92","0.0616654","233.124","222.012"
"7.42323","4547.46","0.0618598","233.203","222.712"
"7.44661","4548.77","0.0620551","233.27","223.412"
"7.46994","4550.89","0.0622495","233.379","224.112"
"7.49323","4552.68","0.0624436","233.471","224.812"
"7.51661","4554.4","0.062638","233.559","225.512"
"7.53994","4556.25","0.0628325","233.654","226.212"
"7.56323","4557.98","0.0630265","233.743","226.912"
"7.58661","4560.26","0.0632218","233.86","227.612"
"7.6099","4561.75","0.0634158","233.936","228.312"
"7.63323","4563.46","0.0636103","234.024","229.012"
"7.65666","4565.66","0.0638051","234.137","229.712"
"7.6799","4566.99","0.0639988","234.205","230.412"
"7.70323","4568.97","0.0641932","234.306","231.112"
"7.72666","4571.42","0.0643884","234.432","231.812"
"7.7499","4572.46","0.0645825","234.485","232.512"
"7.77323","4574.13","0.0647769","234.571","233.212"
"7.79661","4576.08","0.0649714","234.671","233.912"
"7.81995","4577.8","0.0651662","234.759","234.612"
"7.84324","4579.71","0.0653599","234.857","235.312"
"7.86657","4581.35","0.0655547","234.941","236.012"
"7.89","4582.62","0.0657496","235.006","236.712"
"7.91324","4584.48","0.0659433","235.101","237.412"
"7.93662","4586.44","0.0661385","235.202","238.112"
"7.95995","4587.97","0.0663329","235.281","238.812"
"7.98319","4589.27","0.0665266","235.347","239.512"
"8.00662","4591.1","0.0667214","235.441","240.212"
"8.02995","4592.87","0.0669159","235.532","240.912"
"8.05324","4594.2","0.0671099","235.6","241.612"
"8.07667","4596.51","0.0673052","235.719","242.312"
"8.09991","4597.71","0.0674992","235.78","243.012"
"8.12319","4599.2","0.0676933","235.856","243.712"
"8.14662","4601.38","0.0678881","235.968","244.412"
"8.16996","4602.81","0.0680826","236.042","245.112"
"8.19324","4604.31","0.0682766","236.118","245.812"
"8.21658","4605.57","0.0684715","236.183","246.512"
"8.23996","4607.26","0.0686659","236.27","247.212"
"8.26324","4608.95","0.06886","236.3564","247.912"
"8.28662","4611.03","0.0690548","236.463","248.612"
"8.30996","4612.16","0.0692493","236.521","249.312"
"8.33325","4613.47","0.0694433","236.588","250.012"
"8.35663","4615.3","0.0696382","236.682","250.712"
"8.37996","4617.1","0.0698326","236.774","251.412"
"8.4032","4618.15","0.0700263","236.828","252.112"
"8.42663","4620.11","0.0702219","236.929","252.812"
"8.44991","4621.35","0.0704156","236.992","253.512"
"8.4732","4622.74","0.07061","237.064","254.212"
"8.49668","4624.87","0.0708052","237.173","254.912"
"8.51996","4626.35","0.0709993","237.249","255.612"
"8.5432","4627.18","0.071193","237.291","256.312"
"8.56658","4628.93","0.0713882","237.381","257.012"
"8.58996","4630.58","0.0715826","237.466","257.712"
"8.61325","4631.99","0.0717767","237.538","258.412"
"8.63659","4633.65","0.0719715","237.623","259.112"
"8.65992","4634.84","0.072166","237.684","259.812"
"8.68325","4636.11","0.0723601","237.749","260.512"
"8.70659","4637.76","0.0725545","237.834","261.212"
"8.72997","4639.29","0.0727493","237.913","261.912"
"8.75321","4640.26","0.0729434","237.962","262.612"
"8.77663","4642.06","0.0731382","238.054","263.312"
"8.79997","4643.43","0.0733327","238.125","264.012"
"8.82321","4644.12","0.0735264","238.16","264.712"
"8.84659","4646.12","0.0737216","238.263","265.412"
"8.86997","4647.7","0.073916","238.344","266.112"
"8.89326","4648.43","0.0741101","238.381","266.812"
"8.91664","4650.04","0.0743049","238.464","267.512"
"8.93997","4651.63","0.0744994","238.545","268.212"
"8.96326","4652.53","0.0746934","238.591","268.912"
"8.98659","4654.43","0.0748879","238.689","269.612"
"9.00993","4655.55","0.0750823","238.746","270.312"
"9.03326","4656.65","0.0752772","238.802","271.012"
"9.05659","4658.46","0.0754712","238.895","271.712"
"9.07997","4659.51","0.0756661","238.949","272.412"
"9.10326","4660.71","0.0758601","239.011","273.112"
"9.1266","4662.28","0.0760546","239.091","273.812"
"9.14998","4663.57","0.0762494","239.158","274.512"
"9.17322","4664.76","0.0764435","239.218","275.212"
"9.1966","4666.47","0.0766383","239.306","275.912"
"9.21998","4667.82","0.0768331","239.375","276.612"
"9.24322","4668.34","0.0770264","239.402","277.312"
"9.26655","4669.88","0.0772213","239.481","278.012"
"9.28998","4671.51","0.0774161","239.565","278.712"
"9.31327","4672.47","0.0776102","239.614","279.412"
"9.3366","4674.18","0.0778046","239.702","280.112"
"9.35993","4674.26","0.0779991","239.706","280.812"
"9.38322","4675.17","0.0781935","239.752","281.512"
"9.4066","4676.89","0.078388","239.84","282.212"
"9.42994","4678.23","0.0785828","239.909","282.912"
"9.45322","4679.24","0.0787769","239.961","283.612"
"9.4766","4680.36","0.0789713","240.018","284.312"
"9.49998","4681.7","0.0791661","240.087","285.012"
"9.52322","4683.06","0.0793602","240.157","285.712"
"9.54656","4684.01","0.0795543","240.206","286.412"
"9.56998","4685.7","0.0797499","240.292","287.112"
"9.59323","4686.02","0.0799432","240.309","287.812"
"9.61656","4687.07","0.080138","240.362","288.512"
"9.64003","4689.02","0.0803332","240.463","289.212"
"9.66323","4689.57","0.0805265","240.491","289.912"
"9.68656","4690.82","0.0807209","240.555","290.612"
"9.70994","4692.27","0.0809162","240.629","291.312"
"9.73323","4693.37","0.0811102","240.685","292.012"
"9.75661","4694.81","0.0813047","240.76","292.712"
"9.77994","4696.41","0.0814995","240.841","293.412"
"9.80323","4696.87","0.0816932","240.865","294.112"
"9.82661","4698.12","0.081888","240.929","294.812"
"9.84994","4699.86","0.0820825","241.018","295.512"
"9.87328","4700.59","0.0822769","241.056","296.212"
"9.89656","4701.85","0.0824714","241.121","296.912"
"9.91999","4703.43","0.0826662","241.201","297.612"
"9.94323","4703.85","0.0828603","241.223","298.312"
"9.96657","4704.95","0.0830543","241.28","299.012"
"9.98999","4706.89","0.0832496","241.379","299.712"
"10.0132","4707.49","0.0834436","241.41","300.412"
"10.0366","4708.64","0.0836381","241.469","301.112"
"10.0599","4710.36","0.0838329","241.557","301.812"
"10.0832","4711.09","0.084027","241.594","302.512"
"10.1066","4712.39","0.0842214","241.661","303.212"
"10.1299","4713.87","0.0844159","241.737","303.912"
"10.1532","4714.25","0.0846099","241.756","304.612"
"10.1766","4715.73","0.0848051","241.832","305.312"
"10.2","4717.13","0.0849992","241.904","306.012"
"10.2232","4718.01","0.0851933","241.949","306.712"
"10.2466","4719.28","0.0853877","242.014","307.412"
"10.27","4720.27","0.0855825","242.065","308.112"
"10.2933","4721.17","0.085777","242.111","308.812"
"10.3166","4722.86","0.0859711","242.198","309.512"
"10.34","4724.09","0.0861663","242.261","310.212"
"10.3633","4725.03","0.0863603","242.309","310.912"
"10.3865","4725.77","0.0865544","242.347","311.612"
"10.41","4727.05","0.0867492","242.413","312.312"
"10.4333","4728.13","0.0869437","242.468","313.012"
"10.4566","4728.9","0.0871377","242.508","313.712"
"10.48","4729.84","0.087333","242.556","314.412"
"10.5032","4730.15","0.0875266","242.572","315.112"
"10.5266","4731.11","0.0877211","242.621","315.812"
"10.55","4732.49","0.0879159","242.692","316.512"
"10.5732","4733.52","0.0881104","242.745","317.212"
"10.5966","4734.59","0.0883044","242.8","317.912"
"10.62","4735.93","0.0884993","242.868","318.612"
"10.6433","4736.93","0.0886937","242.919","319.312"
"10.6665","4738.01","0.0888878","242.975","320.012"
"10.69","4739.03","0.0890826","243.027","320.712"
"10.7133","4740.12","0.0892775","243.083","321.412"
"10.7365","4740.97","0.0894711","243.127","322.112"
"10.76","4742.09","0.089666","243.184","322.812"
"10.7833","4743.59","0.0898608","243.261","323.512"
"10.8065","4744.21","0.0900541","243.293","324.212"
"10.83","4745.39","0.0902493","243.354","324.912"
"10.8533","4746.09","0.0904434","243.389","325.612"
"10.8766","4747.42","0.0906378","243.457","326.312"
"10.9","4749.02","0.090833","243.539","327.012"
"10.9233","4749.48","0.0910267","243.563","327.712"
"10.9465","4750.19","0.0912208","243.6","328.412"
"10.97","4751.83","0.0914164","243.684","329.112"
"10.9933","4752.82","0.0916101","243.734","329.812"
"11.0166","4753.41","0.0918045","243.765","330.512"
"11.04","4754.98","0.0919993","243.845","331.212"
"11.0633","4755.58","0.0921938","243.876","331.912"
"11.0865","4756.07","0.0923879","243.901","332.612"
"11.1099","4757.6","0.0925827","243.98","333.312"
"11.1333","4758.25","0.0927771","244.013","334.012"
"11.1565","4758.85","0.0929708","244.0436","334.712"
"11.18","4760.33","0.093166","244.12","335.412"
"11.2033","4761.15","0.0933605","244.161","336.112"
"11.2265","4761.55","0.0935545","244.182","336.812"
"11.25","4763.35","0.0937494","244.274","337.512"
"11.2733","4763.96","0.0939434","244.305","338.212"
"11.2965","4763.92","0.0941379","244.303","338.912"
"11.32","4765.68","0.0943331","244.394","339.612"
"11.3433","4766.22","0.0945268","244.421","340.312"
"11.3665","4766.92","0.0947208","244.457","341.012"
"11.3899","4768.34","0.0949161","244.53","341.712"
"11.4133","4768.94","0.0951105","244.561","342.412"
"11.4366","4769.66","0.0953046","244.598","343.112"
"11.4599","4770.94","0.095499","244.6636","343.812"
"11.4833","4771.77","0.0956939","244.706","344.512"
"11.5066","4772.42","0.0958879","244.739","345.212"
"11.5299","4772.96","0.0960824","244.767","345.912"
"11.5533","4773.77","0.0962772","244.809","346.612"
"11.5766","4774.76","0.0964713","244.86","347.312"
"11.5999","4775.73","0.0966657","244.909","348.012"
"11.6233","4776.51","0.0968606","244.949","348.712"
"11.6466","4777.05","0.0970542","244.977","349.412"
"11.6699","4778.51","0.0972495","245.052","350.112"
"11.6933","4779.58","0.0974439","245.107","350.812"
"11.7166","4780.1","0.0976376","245.133","351.512"
"11.74","4781.4","0.0978328","245.2","352.212"
"11.7633","4782.37","0.0980273","245.25","352.912"
"11.7866","4782.95","0.0982209","245.28","353.612"
"11.8099","4783.91","0.0984158","245.329","354.312"
"11.8333","4784.93","0.0986106","245.381","355.012"
"11.8566","4785.71","0.0988047","245.421","355.712"
"11.8799","4786.52","0.0989991","245.463","356.412"
"11.9033","4787.58","0.0991939","245.517","357.112"
"11.9266","4788.31","0.099388","245.554","357.812"
"11.9499","4789.06","0.0995821","245.593","358.512"
"11.9733","4790.38","0.0997773","245.66","359.212"
"11.9966","4790.93","0.099971","245.689","359.912"
"12.02","4792.09","0.100166","245.7484","360.612"
"12.0433","4793.05","0.100361","245.797","361.312"
"12.0665","4793.26","0.100554","245.808","362.012"
"12.0899","4794.43","0.100749","245.868","362.712"
"12.1133","4795.69","0.100944","245.933","363.412"
"12.1366","4796.3","0.101138","245.964","364.112"
"12.1599","4797.38","0.101332","246.02","364.812"
"12.1833","4798.52","0.101527","246.078","365.512"
"12.2066","4798.76","0.101721","246.09","366.212"
"12.2299","4800.03","0.101916","246.155","366.912"
"12.2533","4801.1","0.10211","246.21","367.612"
"12.2766","4801.82","0.102305","246.247","368.312"
"12.2999","4802.49","0.102499","246.281","369.012"
"12.3233","4803.71","0.102694","246.344","369.712"
"12.3466","4804.11","0.102888","246.364","370.412"
"12.3699","4805.27","0.103083","246.424","371.112"
"12.3933","4806.33","0.103277","246.479","371.812"
"12.4165","4806.61","0.103471","246.493","372.512"
"12.44","4807.88","0.103666","246.558","373.212"
"12.4633","4808.99","0.103861","246.615","373.912"
"12.4865","4809.06","0.104054","246.6184","374.612"
"12.5099","4810.25","0.104249","246.68","375.312"
"12.5333","4811.35","0.104444","246.736","376.012"
"12.5566","4811.85","0.104638","246.761","376.712"
"12.58","4812.94","0.104833","246.8172","377.412"
"12.6033","4813.95","0.105027","246.869","378.112"
"12.6266","4814.46","0.105221","246.895","378.812"
"12.6499","4815.23","0.105416","246.935","379.512"
"12.6732","4815.88","0.10561","246.968","380.212"
"12.6966","4816.85","0.105805","247.018","380.912"
"12.7199","4817.69","0.105999","247.061","381.612"
"12.7433","4818.66","0.106194","247.111","382.312"
"12.7666","4819.12","0.106388","247.134","383.012"
"12.7899","4819.91","0.106582","247.175","383.712"
"12.8133","4821.33","0.106777","247.248","384.412"
"12.8366","4821.59","0.106971","247.2612","385.112"
"12.8599","4822.17","0.107166","247.291","385.812"
"12.8833","4823.27","0.107361","247.347","386.512"
"12.9066","4823.79","0.107554","247.374","387.212"
"12.9299","4824.65","0.107749","247.418","387.912"
"12.9532","4825.79","0.107944","247.476","388.612"
"12.9766","4826.5","0.108138","247.513","389.312"
"12.9999","4827.07","0.108333","247.542","390.012"
"13.0233","4828.29","0.108527","247.604","390.712"
"13.0466","4828.87","0.108721","247.634","391.412"
"13.0699","4829.38","0.108916","247.66","392.112"
"13.0933","4830.21","0.10911","247.703","392.812"
"13.1166","4830.48","0.109305","247.717","393.512"
"13.1399","4831.35","0.109499","247.761","394.212"
"13.1633","4832.66","0.109694","247.829","394.912"
"13.1866","4833.33","0.109888","247.863","395.612"
"13.2099","4833.46","0.110082","247.869","396.312"
"13.2333","4834.43","0.110278","247.92","397.012"
"13.2566","4835.13","0.110472","247.955","397.712"
"13.2799","4835.93","0.110666","247.996","398.412"
"13.3033","4837.06","0.11086","248.054","399.112"
"13.3266","4837.33","0.111055","248.068","399.812"
"13.3499","4838.1","0.111249","248.108","400.512"
"13.3733","4839.41","0.111444","248.175","401.212"
"13.3966","4839.98","0.111638","248.204","401.912"
"13.4199","4840.81","0.111832","248.246","402.612"
"13.4433","4841.52","0.112027","248.283","403.312"
"13.4666","4842.14","0.112221","248.315","404.012"
"13.4899","4842.54","0.112416","248.335","404.712"
"13.5133","4843.98","0.11261","248.409","405.412"
"13.5366","4844.68","0.112805","248.445","406.112"
"13.5599","4844.91","0.112999","248.457","406.812"
"13.5833","4846.07","0.113194","248.517","407.512"
"13.6066","4846.87","0.113388","248.558","408.212"
"13.6299","4847.25","0.113582","248.577","408.912"
"13.6533","4848.31","0.113777","248.631","409.612"
"13.6766","4848.76","0.113971","248.654","410.312"
"13.6999","4849.22","0.114166","248.678","411.012"
"13.7234","4850.66","0.114361","248.752","411.712"
"13.7466","4851.13","0.114555","248.776","412.412"
"13.7699","4851.47","0.114749","248.793","413.112"
"13.7933","4852.28","0.114943","248.835","413.812"
"13.8166","4853.01","0.115138","248.872","414.512"
"13.8399","4853.54","0.115332","248.899","415.212"
"13.8633","4854.93","0.115527","248.971","415.912"
"13.8866","4855.12","0.115721","248.98","416.612"
"13.9099","4855.38","0.115916","248.994","417.312"
"13.9333","4856.47","0.116111","249.05","418.012"
"13.9566","4857.39","0.116305","249.097","418.712"
"13.9799","4857.81","0.116499","249.118","419.412"
"14.0033","4859","0.116694","249.179","420.112"
"14.0267","4859.57","0.116888","249.209","420.812"
"14.0499","4859.88","0.117082","249.2248","421.512"
"14.0733","4861.03","0.117277","249.284","422.212"
"14.0966","4861.51","0.117471","249.308","422.912"
"14.1199","4861.83","0.117666","249.325","423.612"
"14.1433","4862.62","0.117861","249.365","424.312"
"14.1666","4863.11","0.118055","249.39","425.012"
"14.1899","4863.96","0.118249","249.4336","425.712"
"14.2133","4865.15","0.118444","249.495","426.412"
"14.2366","4865.34","0.118638","249.505","427.112"
"14.2599","4865.73","0.118832","249.525","427.812"
"14.2833","4866.77","0.119027","249.578","428.512"
"14.3067","4867.36","0.119222","249.608","429.212"
"14.3299","4867.88","0.119415","249.635","429.912"
"14.3532","4868.25","0.11961","249.654","430.612"
"14.3767","4869.13","0.119805","249.699","431.312"
"14.3999","4869.78","0.119999","249.732","432.012"
"14.4233","4870.82","0.120194","249.786","432.712"
"14.4467","4871.06","0.120388","249.798","433.412"
"14.4699","4871.1","0.120582","249.8","434.112"
"14.4932","4871.74","0.120777","249.833","434.812"
"14.5167","4872.53","0.120972","249.873","435.512"
"14.5399","4873.04","0.121165","249.899","436.212"
"14.5633","4874.31","0.121361","249.965","436.912"
"14.5866","4874.63","0.121555","249.981","437.612"
"14.6099","4875.03","0.121749","250.002","438.312"
"14.6333","4875.84","0.121944","250.043","439.012"
"14.6567","4876.87","0.122138","250.096","439.712"
"14.6799","4877.01","0.122332","250.103","440.412"
"14.7032","4877.37","0.122527","250.121","441.112"
"14.7267","4878.51","0.122722","250.18","441.812"
"14.7499","4878.98","0.122916","250.204","442.512"
"14.7732","4879.43","0.12311","250.227","443.212"
"14.7966","4880.4","0.123305","250.277","443.912"
"14.8199","4880.74","0.123499","250.294","444.612"
"14.8433","4881.62","0.123694","250.339","445.312"
"14.8667","4882.71","0.123889","250.395","446.012"
"14.8899","4882.55","0.124082","250.387","446.712"
"14.9133","4883.25","0.124277","250.423","447.412"
"14.9366","4884.21","0.124471","250.472","448.112"
"14.9599","4884.51","0.124666","250.488","448.812"
"14.9833","4885.7","0.124861","250.549","449.512"
"15.0066","4886.4","0.125055","250.585","450.212"
"15.0299","4886.32","0.125249","250.581","450.912"
"15.0532","4886.94","0.125444","250.6124","451.612"
"15.0766","4887.88","0.125638","250.661","452.312"
"15.0999","4888.18","0.125833","250.676","453.012"
"15.1232","4888.2","0.126027","250.677","453.712"
"15.1466","4888.98","0.126221","250.717","454.412"
"15.1699","4889.16","0.126416","250.726","455.112"
"15.1932","4889.97","0.12661","250.768","455.812"
"15.2166","4890.93","0.126805","250.817","456.512"
"15.2399","4890.71","0.126999","250.806","457.212"
"15.2633","4891.48","0.127194","250.845","457.912"
"15.2866","4892.08","0.127389","250.876","458.612"
"15.3099","4891.85","0.127582","250.864","459.312"
"15.3333","4893.02","0.127777","250.924","460.012"
"15.3566","4893.96","0.127972","250.972","460.712"
"15.3799","4893.93","0.128166","250.971","461.412"
"15.4033","4894.96","0.12836","251.024","462.112"
"15.4266","4894.89","0.128555","251.02","462.812"
"15.4499","4895.32","0.128749","251.042","463.512"
"15.4732","4895.97","0.128943","251.076","464.212"
"15.4966","4896.3","0.129138","251.092","464.912"
"15.52","4897.06","0.129333","251.131","465.612"
"15.5433","4897.63","0.129527","251.161","466.312"
"15.5666","4898.39","0.129722","251.1996","467.012"
"15.5899","4898.74","0.129916","251.217","467.712"
"15.6132","4899.03","0.13011","251.232","468.412"
"15.6366","4899.71","0.130305","251.267","469.112"
"15.6599","4900.01","0.130499","251.283","469.812"
"15.6833","4900.86","0.130693","251.326","470.512"
"15.7066","4901.67","0.130889","251.368","471.212"
"15.7299","4901.94","0.131082","251.382","471.912"
"15.7532","4902.2","0.131277","251.395","472.612"
"15.7766","4903.14","0.131472","251.443","473.312"
"15.7999","4903.91","0.131666","251.483","474.012"
"15.8233","4903.92","0.13186","251.483","474.712"
"15.8466","4904.44","0.132055","251.51","475.412"
"15.8699","4905.34","0.132249","251.556","476.112"
"15.8933","4905.53","0.132443","251.566","476.812"
"15.9166","4906.3","0.132638","251.605","477.512"
"15.9399","4906.43","0.132832","251.612","478.212"
"15.9633","4906.9","0.133027","251.636","478.912"
"15.9866","4907.83","0.133222","251.684","479.612"
"16.0099","4908.34","0.133416","251.71","480.312"
"16.0332","4908.47","0.13361","251.716","481.012"
"16.0566","4909.53","0.133805","251.771","481.712"
"16.0799","4909.85","0.133999","251.787","482.412"
"16.1032","4909.94","0.134193","251.792","483.112"
"16.1267","4911.2","0.134389","251.857","483.812"
"16.1499","4911.31","0.134582","251.862","484.512"
"16.1732","4911.37","0.134776","251.865","485.212"
"16.1966","4912.38","0.134972","251.917","485.912"
"16.2199","4912.87","0.135166","251.942","486.612"
"16.2433","4913.53","0.13536","251.976","487.312"
"16.2666","4914.13","0.135555","252.007","488.012"
"16.2899","4914.07","0.135749","252.004","488.712"
"16.3133","4914.63","0.135944","252.032","489.412"
"16.3366","4915.59","0.136138","252.081","490.112"
"16.3599","4915.9","0.136332","252.098","490.812"
"16.3832","4916.17","0.136526","252.111","491.512"
"16.4067","4917.23","0.136722","252.166","492.212"
"16.4299","4917.59","0.136916","252.184","492.912"
"16.4532","4918.05","0.13711","252.208","493.612"
"16.4766","4918.69","0.137305","252.24","494.312"
"16.4999","4918.94","0.137499","252.253","495.012"
"16.5233","4919.19","0.137694","252.266","495.712"
"16.5467","4920.17","0.137888","252.316","496.412"
"16.5699","4920.1","0.138082","252.313","497.112"
"16.5932","4920.76","0.138277","252.347","497.812"
"16.6166","4921.66","0.138471","252.393","498.512"
"16.6399","4921.44","0.138666","252.381","499.212"
"16.6633","4922.69","0.138861","252.446","499.912"
"16.6866","4923.27","0.139055","252.476","500.612"
"16.7099","4923.58","0.139249","252.491","501.312"
"16.7332","4924.18","0.139444","252.522","502.012"
"16.7566","4924.41","0.139638","252.5336","502.712"
"16.7799","4925.07","0.139832","252.568","503.412"
"16.8032","4925.2","0.140027","252.574","504.112"
"16.8266","4926.08","0.140222","252.62","504.812"
"16.85","4926.35","0.140416","252.633","505.512"
"16.8732","4925.59","0.14061","252.594","506.212"
"16.8966","4926.36","0.140805","252.634","506.912"
"16.92","4926.76","0.141","252.655","507.612"
"16.9432","4927.03","0.141193","252.668","508.312"
"16.9666","4927.37","0.141388","252.6856","509.012"
"16.99","4927.14","0.141583","252.674","509.712"
"17.0132","4925.82","0.141777","252.606","510.412"
"17.0366","4926.66","0.141971","252.649","511.112"
"17.06","4927.29","0.142166","252.681","511.812"
"17.0832","4927.58","0.14236","252.696","512.512"
"17.1066","4928.33","0.142555","252.735","513.212"
"17.13","4928.91","0.142749","252.764","513.912"
"17.1532","4928.44","0.142943","252.74","514.612"
"17.1766","4928.37","0.143138","252.737","515.312"
"17.2","4929.26","0.143333","252.782","516.012"
"17.2232","4929.08","0.143527","252.774","516.712"
"17.2466","4929.76","0.143721","252.808","517.412"
"17.27","4930.52","0.143916","252.847","518.112"
"17.2932","4930.52","0.14411","252.847","518.812"
"17.3166","4931.19","0.144305","252.882","519.512"
"17.34","4931.44","0.144499","252.894","520.212"
"17.3632","4931.92","0.144693","252.919","520.912"
"17.3866","4932.73","0.144888","252.961","521.612"
"17.4099","4932.82","0.145083","252.965","522.312"
"17.4332","4932.74","0.145276","252.961","523.012"
"17.4566","4933.91","0.145472","253.021","523.712"
"17.48","4934.17","0.145666","253.034","524.412"
"17.5032","4934.35","0.14586","253.043","525.112"
"17.5266","4934.78","0.146055","253.066","525.812"
"17.55","4935.32","0.146249","253.093","526.512"
"17.5733","4935.4","0.146443","253.097","527.212"
"17.5966","4936.09","0.146638","253.133","527.912"
"17.62","4936.79","0.146833","253.169","528.612"
"17.6433","4936.7","0.147027","253.164","529.312"
"17.6666","4937.15","0.147222","253.187","530.012"
"17.69","4937.55","0.147416","253.208","530.712"
"17.7133","4937.73","0.14761","253.217","531.412"
"17.7366","4938.3","0.147804","253.246","532.112"
"17.7599","4938.47","0.147999","253.255","532.812"
"17.7832","4938.73","0.148193","253.268","533.512"
"17.8066","4939.61","0.148389","253.314","534.212"
"17.8299","4939.75","0.148583","253.321","534.912"
"17.8532","4939.69","0.148776","253.318","535.612"
"17.8766","4940.24","0.148971","253.346","536.312"
"17.9","4940.7","0.149166","253.369","537.012"
"17.9233","4941.11","0.14936","253.39","537.712"
"17.9466","4941.64","0.149555","253.417","538.412"
"17.97","4941.9","0.149749","253.431","539.112"
"17.9933","4941.97","0.149943","253.434","539.812"
"18.0165","4941.92","0.150138","253.432","540.512"
"18.04","4942.64","0.150333","253.469","541.212"
"18.0633","4942.57","0.150527","253.465","541.912"
"18.0866","4942.69","0.150721","253.471","542.612"
"18.11","4942.9","0.150916","253.482","543.312"
"18.1332","4942.83","0.15111","253.479","544.012"
"18.1566","4943.58","0.151305","253.5168","544.712"
"18.1799","4943.99","0.151499","253.538","545.412"
"18.2032","4944.01","0.151693","253.539","546.112"
"18.2266","4944.26","0.151888","253.552","546.812"
"18.25","4942.71","0.152083","253.473","547.512"
"18.2733","4942.13","0.152277","253.443","548.212"
"18.2966","4941.3","0.152471","253.4","548.912"
"18.3199","4941.09","0.152666","253.389","549.612"
"18.3433","4941.9","0.15286","253.431","550.312"
"18.3666","4942.41","0.153055","253.457","551.012"
"18.39","4943.48","0.153249","253.512","551.712"
"18.4133","4943.67","0.153444","253.521","552.412"
"18.4366","4943.91","0.153638","253.534","553.112"
"18.46","4944.23","0.153833","253.55","553.812"
"18.4832","4944.4","0.154027","253.5588","554.512"
"18.5066","4944.84","0.154221","253.581","555.212"
"18.53","4945.18","0.154416","253.5992","555.912"
"18.5532","4945.03","0.15461","253.591","556.612"
"18.5766","4945.54","0.154805","253.618","557.312"
"18.6","4945.54","0.154999","253.618","558.012"
"18.6232","4945.76","0.155194","253.629","558.712"
"18.6466","4945.87","0.155388","253.634","559.412"
"18.67","4946.12","0.155583","253.647","560.112"
"18.6932","4945.81","0.155777","253.632","560.812"
"18.7166","4946.11","0.155971","253.646","561.512"
"18.7399","4942.38","0.156166","253.455","562.212"
"18.7633","4940.92","0.15636","253.381","562.912"
"18.7866","4940.7","0.156554","253.369","563.612"
"18.81","4941.67","0.15675","253.419","564.312"
"18.8333","4942.09","0.156944","253.44","565.012"
"18.8566","4942.08","0.157138","253.44","565.712"
"18.8799","4942.52","0.157333","253.462","566.412"
"18.9032","4942.2","0.157527","253.446","567.112"
"18.9266","4942.52","0.157721","253.462","567.812"
"18.95","4943.22","0.157917","253.498","568.512"
"18.9732","4942.69","0.15811","253.471","569.212"
"18.9966","4941.78","0.158304","253.425","569.912"
"19.0199","4942.35","0.1585","253.454","570.612"
"19.0433","4942.21","0.158694","253.4468","571.312"
"19.0666","4942.29","0.158888","253.451","572.012"
"19.0899","4942.14","0.159083","253.443","572.712"
"19.1132","4941.49","0.159277","253.41","573.412"
"19.1366","4938.52","0.159471","253.257","574.112"
"19.1599","4934.86","0.159666","253.07","574.812"
"19.1833","4932.28","0.15986","252.937","575.512"
"19.2066","4931.83","0.160055","252.915","576.212"
"19.23","4931.16","0.160249","252.88","576.912"
"19.2533","4926.17","0.160444","252.624","577.612"
"19.2766","4923.18","0.160638","252.471","578.312"
"19.3","4922.82","0.160833","252.453","579.012"
"19.3232","4922.03","0.161027","252.412","579.712"
"19.3466","4920.87","0.161221","252.353","580.412"
"19.37","4919.57","0.161416","252.286","581.112"
"19.3933","4911.27","0.16161","251.86","581.812"
"19.4166","4307.94","0.161805","220.92","582.512"
"19.4399","4200.29","0.161999","215.4","583.212"
"19.4633","4186.93","0.162194","214.714","583.912"
"19.4866","4181.36","0.162388","214.429","584.612"
"19.51","4175.7","0.162583","214.139","585.312"
"19.5333","4171.71","0.162777","213.934","586.012"
"19.5566","4167.56","0.162971","213.7208","586.712"
"19.5799","4164.82","0.163166","213.581","587.412"
"19.6033","4161.59","0.16336","213.415","588.112"
"19.6266","4154.11","0.163554","213.031","588.812"
"19.65","4141.98","0.16375","212.4092","589.512"
"19.6733","4136.43","0.163944","212.124","590.212"
"19.6965","4122.31","0.164137","211.401","590.912"
"19.72","4096.21","0.164333","210.062","591.612"
"19.7433","4087.71","0.164527","209.626","592.312"
"19.7665","4043.68","0.164721","207.368","593.012"
"19.79","3919.68","0.164916","201.009","593.712"
"19.8132","2434.5","0.16511","124.846","594.412"
"19.8365","2438.92","0.165304","125.073","595.112"
"19.86","2443.18","0.165499","125.291","595.812"
"19.8833","2446.61","0.165694","125.467","596.512"
"19.9066","2449.24","0.165888","125.602","597.212"
"19.93","2451.73","0.166083","125.73","597.912"
"19.9533","2453.77","0.166277","125.835","598.612"
"19.9765","2455.29","0.166471","125.912","599.312"
"19.9999","2456.74","0.166666","125.987","600.012"
"20.0233","2458.53","0.16686","126.079","600.712"
"20.0465","2459.87","0.167054","126.147","601.412"
"20.07","2461.56","0.167249","126.234","602.112"
"20.0933","2463.3","0.167444","126.323","602.812"
"20.1165","2463.92","0.167637","126.3548","603.512"
"20.1399","2465.52","0.167833","126.437","604.212"
"20.1633","2466.9","0.168027","126.508","604.912"
"20.1866","2467.71","0.168221","126.549","605.612"
"20.21","2469.13","0.168416","126.622","606.312"
"20.2333","2469.93","0.16861","126.663","607.012"
"20.2566","2470.4","0.168805","126.687","607.712"
"20.2799","2471.73","0.168999","126.755","608.412"
"20.3033","2472.44","0.169194","126.792","609.112"
"20.3266","2472.81","0.169388","126.811","609.812"
"20.3499","2473.61","0.169583","126.852","610.512"
"20.3733","2473.71","0.169777","126.857","611.212"
"20.3966","2465.76","0.169971","126.449","611.912"
"20.4199","2457.97","0.170166","126.05","612.612"
"20.4433","2450.44","0.170361","125.664","613.312"
"20.4665","2445.94","0.170554","125.433","614.012"
"20.4899","2416.53","0.170749","123.925","614.712"
"20.5133","2358.72","0.170944","120.96","615.412"
"20.5332","41.973","0.17111","2.152463","615.998"