File: experimental_data/tensile_specimen_test_data/TXT/(2)R2001314-0.2,0.2-0.5.txt
0.6657 0.5000 0.2000
25.0657 0.5000 0.2000
49.4657 0.5000 0.2000
73.8657 0.5000 0.2000
98.2657 0.5000 0.2000
122.6657 0.5000 0.2000
147.0657 0.5000 0.2000
171.4657 0.5000 0.2000
195.8657 0.5000 0.2000
191.7000 12.9000 0.2000
167.3000 12.9000 0.2000
142.9000 12.9000 0.2000
118.5000 12.9000 0.2000
94.1000 12.9000 0.2000
69.7000 12.9000 0.2000
45.3000 12.9000 0.2000
20.9000 12.9000 0.2000
0.5000 8.9000 0.2000
18.5000 1.5000 0.2000
42.9000 1.5000 0.2000
67.3000 1.5000 0.2000
91.7000 1.5000 0.2000
116.1000 1.5000 0.2000
140.5000 1.5000 0.2000
164.9000 1.5000 0.2000
189.3000 1.5000 0.2000
194.5000 11.9000 0.2000
170.1000 11.9000 0.2000
145.7000 11.9000 0.2000
121.3000 11.9000 0.2000
96.9000 11.9000 0.2000
72.5000 11.9000 0.2000
48.1000 11.9000 0.2000
23.7000 11.9000 0.2000
1.5000 9.7000 0.2000
19.5000 2.5000 0.2000
43.9000 2.5000 0.2000
68.3000 2.5000 0.2000
92.7000 2.5000 0.2000
117.1000 2.5000 0.2000
141.5000 2.5000 0.2000
165.9000 2.5000 0.2000
190.3000 2.5000 0.2000
189.5000 10.9000 0.2000
165.1000 10.9000 0.2000
140.7000 10.9000 0.2000
116.3000 10.9000 0.2000
91.9000 10.9000 0.2000
67.5000 10.9000 0.2000
43.1000 10.9000 0.2000
18.7000 10.9000 0.2000
4.1000 3.5000 0.2000
28.5000 3.5000 0.2000
52.9000 3.5000 0.2000
77.3000 3.5000 0.2000
101.7000 3.5000 0.2000
126.1000 3.5000 0.2000
150.5000 3.5000 0.2000
174.9000 3.5000 0.2000
196.9000 5.9000 0.2000
176.5000 9.9000 0.2000
152.1000 9.9000 0.2000
127.7000 9.9000 0.2000
103.3000 9.9000 0.2000
78.9000 9.9000 0.2000
54.5000 9.9000 0.2000
30.1000 9.9000 0.2000
5.7000 9.9000 0.2000
21.1000 4.5000 0.2000
45.5000 4.5000 0.2000
69.9000 4.5000 0.2000
94.3000 4.5000 0.2000
118.7000 4.5000 0.2000
143.1000 4.5000 0.2000
167.5000 4.5000 0.2000
191.9000 4.5000 0.2000
179.9000 8.9000 0.2000
155.5000 8.9000 0.2000
131.1000 8.9000 0.2000
106.7000 8.9000 0.2000
82.3000 8.9000 0.2000
57.9000 8.9000 0.2000
33.5000 8.9000 0.2000
9.1000 8.9000 0.2000
21.7000 5.5000 0.2000
46.1000 5.5000 0.2000
70.5000 5.5000 0.2000
94.9000 5.5000 0.2000
119.3000 5.5000 0.2000
143.7000 5.5000 0.2000
168.1000 5.5000 0.2000
192.5000 5.5000 0.2000
175.3000 7.9000 0.2000
150.9000 7.9000 0.2000
126.5000 7.9000 0.2000
102.1000 7.9000 0.2000
77.7000 7.9000 0.2000
53.3000 7.9000 0.2000
28.9000 7.9000 0.2000
5.5000 6.9000 0.2000
30.3000 6.5000 0.2000
54.7000 6.5000 0.2000
79.1000 6.5000 0.2000
103.5000 6.5000 0.2000
127.9000 6.5000 0.2000
152.3000 6.5000 0.2000
176.7000 6.5000 0.2000
187.1000 6.9000 0.2000
162.7000 6.9000 0.2000
138.3000 6.9000 0.2000
113.9000 6.9000 0.2000
89.5000 6.9000 0.2000
65.1000 6.9000 0.2000
40.7000 6.9000 0.2000
16.3000 6.9000 0.2000
20.8000 7.4000 0.2000
45.2000 7.4000 0.2000
69.6000 7.4000 0.2000
94.0000 7.4000 0.2000
118.4000 7.4000 0.2000
142.8000 7.4000 0.2000
167.2000 7.4000 0.2000
191.6000 7.4000 0.2000
174.2000 6.0000 0.2000
149.8000 6.0000 0.2000
125.4000 6.0000 0.2000
101.0000 6.0000 0.2000
76.6000 6.0000 0.2000
52.2000 6.0000 0.2000
27.8000 6.0000 0.2000
5.1333 8.2667 0.2000
29.4000 8.4000 0.2000
53.8000 8.4000 0.2000
78.2000 8.4000 0.2000
102.6000 8.4000 0.2000
127.0000 8.4000 0.2000
151.4000 8.4000 0.2000
175.8000 8.4000 0.2000
194.0000 5.0000 0.2000
169.6000 5.0000 0.2000
145.2000 5.0000 0.2000
120.8000 5.0000 0.2000
96.4000 5.0000 0.2000
72.0000 5.0000 0.2000
47.6000 5.0000 0.2000
23.2000 5.0000 0.2000
5.6000 9.4000 0.2000
30.0000 9.4000 0.2000
54.4000 9.4000 0.2000
78.8000 9.4000 0.2000
103.2000 9.4000 0.2000
127.6000 9.4000 0.2000
152.0000 9.4000 0.2000
176.4000 9.4000 0.2000
196.4000 5.0000 0.2000
173.0000 4.0000 0.2000
148.6000 4.0000 0.2000
124.2000 4.0000 0.2000
99.8000 4.0000 0.2000
75.4000 4.0000 0.2000
51.0000 4.0000 0.2000
26.6000 4.0000 0.2000
3.0000 5.6000 0.2000
22.6000 10.4000 0.2000
47.0000 10.4000 0.2000
71.4000 10.4000 0.2000
95.8000 10.4000 0.2000
120.2000 10.4000 0.2000
144.6000 10.4000 0.2000
169.0000 10.4000 0.2000
193.4000 10.4000 0.2000
184.4000 3.0000 0.2000
160.0000 3.0000 0.2000
135.6000 3.0000 0.2000
111.2000 3.0000 0.2000
86.8000 3.0000 0.2000
62.4000 3.0000 0.2000
38.0000 3.0000 0.2000
13.6000 3.0000 0.2000
7.2000 11.4000 0.2000
31.6000 11.4000 0.2000
56.0000 11.4000 0.2000
80.4000 11.4000 0.2000
104.8000 11.4000 0.2000
129.2000 11.4000 0.2000
153.6000 11.4000 0.2000
178.0000 11.4000 0.2000
198.4000 7.4000 0.2000
179.4000 2.0000 0.2000
155.0000 2.0000 0.2000
130.6000 2.0000 0.2000
106.2000 2.0000 0.2000
81.8000 2.0000 0.2000
57.4000 2.0000 0.2000
33.0000 2.0000 0.2000
8.6000 2.0000 0.2000
8.2000 12.4000 0.2000
32.6000 12.4000 0.2000
57.0000 12.4000 0.2000
81.4000 12.4000 0.2000
105.8000 12.4000 0.2000
130.2000 12.4000 0.2000
154.6000 12.4000 0.2000
179.0000 12.4000 0.2000
199.4000 8.4000 0.2000
182.4000 1.0000 0.2000
158.0000 1.0000 0.2000
133.6000 1.0000 0.2000
109.2000 1.0000 0.2000
84.8000 1.0000 0.2000
60.4000 1.0000 0.2000
36.0000 1.0000 0.2000
11.6000 1.0000 0.2000
13.2000 1.0000 0.4000
37.6000 1.0000 0.4000
62.0000 1.0000 0.4000
86.4000 1.0000 0.4000
110.8000 1.0000 0.4000
135.2000 1.0000 0.4000
159.6000 1.0000 0.4000
184.0000 1.0000 0.4000
199.4000 10.0000 0.4000
177.4000 12.4000 0.4000
153.0000 12.4000 0.4000
128.6000 12.4000 0.4000
104.2000 12.4000 0.4000
79.8000 12.4000 0.4000
55.4000 12.4000 0.4000
31.0000 12.4000 0.4000
6.6000 12.4000 0.4000
10.2000 2.0000 0.4000
34.6000 2.0000 0.4000
59.0000 2.0000 0.4000
83.4000 2.0000 0.4000
107.8000 2.0000 0.4000
132.2000 2.0000 0.4000
156.6000 2.0000 0.4000
181.0000 2.0000 0.4000
198.4000 9.0000 0.4000
176.4000 11.4000 0.4000
152.0000 11.4000 0.4000
127.6000 11.4000 0.4000
103.2000 11.4000 0.4000
78.8000 11.4000 0.4000
54.4000 11.4000 0.4000
30.0000 11.4000 0.4000
5.6000 11.4000 0.4000
15.2000 3.0000 0.4000
39.6000 3.0000 0.4000
64.0000 3.0000 0.4000
88.4000 3.0000 0.4000
112.8000 3.0000 0.4000
137.2000 3.0000 0.4000
161.6000 3.0000 0.4000
186.0000 3.0000 0.4000
191.8000 10.4000 0.4000
167.4000 10.4000 0.4000
143.0000 10.4000 0.4000
118.6000 10.4000 0.4000
94.2000 10.4000 0.4000
69.8000 10.4000 0.4000
45.4000 10.4000 0.4000
21.0000 10.4000 0.4000
3.4000 4.1333 0.4000
28.2000 4.0000 0.4000
52.6000 4.0000 0.4000
77.0000 4.0000 0.4000
101.4000 4.0000 0.4000
125.8000 4.0000 0.4000
150.2000 4.0000 0.4000
174.6000 4.0000 0.4000
196.4000 6.6000 0.4000
174.8000 9.4000 0.4000
150.4000 9.4000 0.4000
126.0000 9.4000 0.4000
101.6000 9.4000 0.4000
77.2000 9.4000 0.4000
52.8000 9.4000 0.4000
28.4000 9.4000 0.4000
4.1333 9.2667 0.4000
24.8000 5.0000 0.4000
49.2000 5.0000 0.4000
73.6000 5.0000 0.4000
98.0000 5.0000 0.4000
122.4000 5.0000 0.4000
146.8000 5.0000 0.4000
171.2000 5.0000 0.4000
195.3333 5.2667 0.4000
174.2000 8.4000 0.4000
149.8000 8.4000 0.4000
125.4000 8.4000 0.4000
101.0000 8.4000 0.4000
76.6000 8.4000 0.4000
52.2000 8.4000 0.4000
27.8000 8.4000 0.4000
5.0000 6.8000 0.4000
29.4000 6.0000 0.4000
53.8000 6.0000 0.4000
78.2000 6.0000 0.4000
102.6000 6.0000 0.4000
127.0000 6.0000 0.4000
151.4000 6.0000 0.4000
175.8000 6.0000 0.4000
190.0000 7.4000 0.4000
165.6000 7.4000 0.4000
141.2000 7.4000 0.4000
116.8000 7.4000 0.4000
92.4000 7.4000 0.4000
68.0000 7.4000 0.4000
43.6000 7.4000 0.4000
19.2000 7.4000 0.4000
17.9000 6.9000 0.4000
42.3000 6.9000 0.4000
66.7000 6.9000 0.4000
91.1000 6.9000 0.4000
115.5000 6.9000 0.4000
139.9000 6.9000 0.4000
164.3000 6.9000 0.4000
188.7000 6.9000 0.4000
175.1000 6.5000 0.4000
150.7000 6.5000 0.4000
126.3000 6.5000 0.4000
101.9000 6.5000 0.4000
77.5000 6.5000 0.4000
53.1000 6.5000 0.4000
28.7000 6.5000 0.4000
6.1000 7.9000 0.4000
30.5000 7.9000 0.4000
54.9000 7.9000 0.4000
79.3000 7.9000 0.4000
103.7000 7.9000 0.4000
128.1000 7.9000 0.4000
152.5000 7.9000 0.4000
176.9000 7.9000 0.4000
190.9000 5.5000 0.4000
166.5000 5.5000 0.4000
142.1000 5.5000 0.4000
117.7000 5.5000 0.4000
93.3000 5.5000 0.4000
68.9000 5.5000 0.4000
44.5000 5.5000 0.4000
20.1000 5.5000 0.4000
10.7000 8.9000 0.4000
35.1000 8.9000 0.4000
59.5000 8.9000 0.4000
83.9000 8.9000 0.4000
108.3000 8.9000 0.4000
132.7000 8.9000 0.4000
157.1000 8.9000 0.4000
181.5000 8.9000 0.4000
190.3000 4.5000 0.4000
165.9000 4.5000 0.4000
141.5000 4.5000 0.4000
117.1000 4.5000 0.4000
92.7000 4.5000 0.4000
68.3000 4.5000 0.4000
43.9000 4.5000 0.4000
19.5000 4.5000 0.4000
7.3000 9.9000 0.4000
31.7000 9.9000 0.4000
56.1000 9.9000 0.4000
80.5000 9.9000 0.4000
104.9000 9.9000 0.4000
129.3000 9.9000 0.4000
153.7000 9.9000 0.4000
178.1000 9.9000 0.4000
196.9000 4.3000 0.4000
173.3000 3.5000 0.4000
148.9000 3.5000 0.4000
124.5000 3.5000 0.4000
100.1000 3.5000 0.4000
75.7000 3.5000 0.4000
51.3000 3.5000 0.4000
26.9000 3.5000 0.4000
2.5000 4.3000 0.4000
20.3000 10.9000 0.4000
44.7000 10.9000 0.4000
69.1000 10.9000 0.4000
93.5000 10.9000 0.4000
117.9000 10.9000 0.4000
142.3000 10.9000 0.4000
166.7000 10.9000 0.4000
191.1000 10.9000 0.4000
188.7000 2.5000 0.4000
164.3000 2.5000 0.4000
139.9000 2.5000 0.4000
115.5000 2.5000 0.4000
91.1000 2.5000 0.4000
66.7000 2.5000 0.4000
42.3000 2.5000 0.4000
17.9000 2.5000 0.4000
1.5000 11.3000 0.4000
25.3000 11.9000 0.4000
49.7000 11.9000 0.4000
74.1000 11.9000 0.4000
98.5000 11.9000 0.4000
122.9000 11.9000 0.4000
147.3000 11.9000 0.4000
171.7000 11.9000 0.4000
196.1000 11.9000 0.4000
187.7000 1.5000 0.4000
163.3000 1.5000 0.4000
138.9000 1.5000 0.4000
114.5000 1.5000 0.4000
90.1000 1.5000 0.4000
65.7000 1.5000 0.4000
41.3000 1.5000 0.4000
16.9000 1.5000 0.4000
0.5000 10.5000 0.4000
22.5000 12.9000 0.4000
46.9000 12.9000 0.4000
71.3000 12.9000 0.4000
95.7000 12.9000 0.4000
120.1000 12.9000 0.4000
144.5000 12.9000 0.4000
168.9000 12.9000 0.4000
193.3000 12.9000 0.4000
194.2657 0.5000 0.4000
169.8657 0.5000 0.4000
145.4657 0.5000 0.4000
121.0657 0.5000 0.4000
96.6657 0.5000 0.4000
72.2657 0.5000 0.4000
47.8657 0.5000 0.4000
23.4657 0.5000 0.4000
1.8657 0.5000 0.6000
26.2657 0.5000 0.6000
50.6657 0.5000 0.6000
75.0657 0.5000 0.6000
99.4657 0.5000 0.6000
123.8657 0.5000 0.6000
148.2657 0.5000 0.6000
172.6657 0.5000 0.6000
197.0657 0.5000 0.6000
190.5000 12.9000 0.6000
166.1000 12.9000 0.6000
141.7000 12.9000 0.6000
117.3000 12.9000 0.6000
92.9000 12.9000 0.6000
68.5000 12.9000 0.6000
44.1000 12.9000 0.6000
19.7000 12.9000 0.6000
0.5000 7.7000 0.6000
19.7000 1.5000 0.6000
44.1000 1.5000 0.6000
68.5000 1.5000 0.6000
92.9000 1.5000 0.6000
117.3000 1.5000 0.6000
141.7000 1.5000 0.6000
166.1000 1.5000 0.6000
190.5000 1.5000 0.6000
193.3000 11.9000 0.6000
168.9000 11.9000 0.6000
144.5000 11.9000 0.6000
120.1000 11.9000 0.6000
95.7000 11.9000 0.6000
71.3000 11.9000 0.6000
46.9000 11.9000 0.6000
22.5000 11.9000 0.6000
1.5000 8.5000 0.6000
20.7000 2.5000 0.6000
45.1000 2.5000 0.6000
69.5000 2.5000 0.6000
93.9000 2.5000 0.6000
118.3000 2.5000 0.6000
142.7000 2.5000 0.6000
167.1000 2.5000 0.6000
191.5000 2.5000 0.6000
188.3000 10.9000 0.6000
163.9000 10.9000 0.6000
139.5000 10.9000 0.6000
115.1000 10.9000 0.6000
90.7000 10.9000 0.6000
66.3000 10.9000 0.6000
41.9000 10.9000 0.6000
17.5000 10.9000 0.6000
5.3000 3.5000 0.6000
29.7000 3.5000 0.6000
54.1000 3.5000 0.6000
78.5000 3.5000 0.6000
102.9000 3.5000 0.6000
127.3000 3.5000 0.6000
151.7000 3.5000 0.6000
176.1000 3.5000 0.6000
196.9000 7.1000 0.6000
175.3000 9.9000 0.6000
150.9000 9.9000 0.6000
126.5000 9.9000 0.6000
102.1000 9.9000 0.6000
77.7000 9.9000 0.6000
53.3000 9.9000 0.6000
28.9000 9.9000 0.6000
4.5000 9.9000 0.6000
22.3000 4.5000 0.6000
46.7000 4.5000 0.6000
71.1000 4.5000 0.6000
95.5000 4.5000 0.6000
119.9000 4.5000 0.6000
144.3000 4.5000 0.6000
168.7000 4.5000 0.6000
193.1000 4.5000 0.6000
178.7000 8.9000 0.6000
154.3000 8.9000 0.6000
129.9000 8.9000 0.6000
105.5000 8.9000 0.6000
81.1000 8.9000 0.6000
56.7000 8.9000 0.6000
32.3000 8.9000 0.6000
7.9000 8.9000 0.6000
22.9000 5.5000 0.6000
47.3000 5.5000 0.6000
71.7000 5.5000 0.6000
96.1000 5.5000 0.6000
120.5000 5.5000 0.6000
144.9000 5.5000 0.6000
169.3000 5.5000 0.6000
193.7000 5.5000 0.6000
174.1000 7.9000 0.6000
149.7000 7.9000 0.6000
125.3000 7.9000 0.6000
100.9000 7.9000 0.6000
76.5000 7.9000 0.6000
52.1000 7.9000 0.6000
27.7000 7.9000 0.6000
7.1000 6.5000 0.6000
31.5000 6.5000 0.6000
55.9000 6.5000 0.6000
80.3000 6.5000 0.6000
104.7000 6.5000 0.6000
129.1000 6.5000 0.6000
153.5000 6.5000 0.6000
177.9000 6.5000 0.6000
185.9000 6.9000 0.6000
161.5000 6.9000 0.6000
137.1000 6.9000 0.6000
112.7000 6.9000 0.6000
88.3000 6.9000 0.6000
63.9000 6.9000 0.6000
39.5000 6.9000 0.6000
15.1000 6.9000 0.6000
22.0000 7.4000 0.6000
46.4000 7.4000 0.6000
70.8000 7.4000 0.6000
95.2000 7.4000 0.6000
119.6000 7.4000 0.6000
144.0000 7.4000 0.6000
168.4000 7.4000 0.6000
192.8000 7.4000 0.6000
173.0000 6.0000 0.6000
148.6000 6.0000 0.6000
124.2000 6.0000 0.6000
99.8000 6.0000 0.6000
75.4000 6.0000 0.6000
51.0000 6.0000 0.6000
26.6000 6.0000 0.6000
6.2000 8.4000 0.6000
30.6000 8.4000 0.6000
55.0000 8.4000 0.6000
79.4000 8.4000 0.6000
103.8000 8.4000 0.6000
128.2000 8.4000 0.6000
152.6000 8.4000 0.6000
177.0000 8.4000 0.6000
192.8000 5.0000 0.6000
168.4000 5.0000 0.6000
144.0000 5.0000 0.6000
119.6000 5.0000 0.6000
95.2000 5.0000 0.6000
70.8000 5.0000 0.6000
46.4000 5.0000 0.6000
22.0000 5.0000 0.6000
6.8000 9.4000 0.6000
31.2000 9.4000 0.6000
55.6000 9.4000 0.6000
80.0000 9.4000 0.6000
104.4000 9.4000 0.6000
128.8000 9.4000 0.6000
153.2000 9.4000 0.6000
177.6000 9.4000 0.6000
196.1333 4.0667 0.6000
171.8000 4.0000 0.6000
147.4000 4.0000 0.6000
123.0000 4.0000 0.6000
98.6000 4.0000 0.6000
74.2000 4.0000 0.6000
49.8000 4.0000 0.6000
25.4000 4.0000 0.6000
3.0000 6.8000 0.6000
23.8000 10.4000 0.6000
48.2000 10.4000 0.6000
72.6000 10.4000 0.6000
97.0000 10.4000 0.6000
121.4000 10.4000 0.6000
145.8000 10.4000 0.6000
170.2000 10.4000 0.6000
194.6000 10.4000 0.6000
183.2000 3.0000 0.6000
158.8000 3.0000 0.6000
134.4000 3.0000 0.6000
110.0000 3.0000 0.6000
85.6000 3.0000 0.6000
61.2000 3.0000 0.6000
36.8000 3.0000 0.6000
12.4000 3.0000 0.6000
8.4000 11.4000 0.6000
32.8000 11.4000 0.6000
57.2000 11.4000 0.6000
81.6000 11.4000 0.6000
106.0000 11.4000 0.6000
130.4000 11.4000 0.6000
154.8000 11.4000 0.6000
179.2000 11.4000 0.6000
198.4000 6.2000 0.6000
178.2000 2.0000 0.6000
153.8000 2.0000 0.6000
129.4000 2.0000 0.6000
105.0000 2.0000 0.6000
80.6000 2.0000 0.6000
56.2000 2.0000 0.6000
31.8000 2.0000 0.6000
7.4000 2.0000 0.6000
9.4000 12.4000 0.6000
33.8000 12.4000 0.6000
58.2000 12.4000 0.6000
82.6000 12.4000 0.6000
107.0000 12.4000 0.6000
131.4000 12.4000 0.6000
155.8000 12.4000 0.6000
180.2000 12.4000 0.6000
199.4000 7.2000 0.6000
181.2000 1.0000 0.6000
156.8000 1.0000 0.6000
132.4000 1.0000 0.6000
108.0000 1.0000 0.6000
83.6000 1.0000 0.6000
59.2000 1.0000 0.6000
34.8000 1.0000 0.6000
10.4000 1.0000 0.6000
14.4000 1.0000 0.8000
38.8000 1.0000 0.8000
63.2000 1.0000 0.8000
87.6000 1.0000 0.8000
112.0000 1.0000 0.8000
136.4000 1.0000 0.8000
160.8000 1.0000 0.8000
185.2000 1.0000 0.8000
199.4000 11.2000 0.8000
176.2000 12.4000 0.8000
151.8000 12.4000 0.8000
127.4000 12.4000 0.8000
103.0000 12.4000 0.8000
78.6000 12.4000 0.8000
54.2000 12.4000 0.8000
29.8000 12.4000 0.8000
5.4000 12.4000 0.8000
11.4000 2.0000 0.8000
35.8000 2.0000 0.8000
60.2000 2.0000 0.8000
84.6000 2.0000 0.8000
109.0000 2.0000 0.8000
133.4000 2.0000 0.8000
157.8000 2.0000 0.8000
182.2000 2.0000 0.8000
198.4000 10.2000 0.8000
175.2000 11.4000 0.8000
150.8000 11.4000 0.8000
126.4000 11.4000 0.8000
102.0000 11.4000 0.8000
77.6000 11.4000 0.8000
53.2000 11.4000 0.8000
28.8000 11.4000 0.8000
4.4000 11.4000 0.8000
16.4000 3.0000 0.8000
40.8000 3.0000 0.8000
65.2000 3.0000 0.8000
89.6000 3.0000 0.8000
114.0000 3.0000 0.8000
138.4000 3.0000 0.8000
162.8000 3.0000 0.8000
187.2000 3.0000 0.8000
190.6000 10.4000 0.8000
166.2000 10.4000 0.8000
141.8000 10.4000 0.8000
117.4000 10.4000 0.8000
93.0000 10.4000 0.8000
68.6000 10.4000 0.8000
44.2000 10.4000 0.8000
19.8000 10.4000 0.8000
5.0000 4.0000 0.8000
29.4000 4.0000 0.8000
53.8000 4.0000 0.8000
78.2000 4.0000 0.8000
102.6000 4.0000 0.8000
127.0000 4.0000 0.8000
151.4000 4.0000 0.8000
175.8000 4.0000 0.8000
196.4000 7.8000 0.8000
173.6000 9.4000 0.8000
149.2000 9.4000 0.8000
124.8000 9.4000 0.8000
100.4000 9.4000 0.8000
76.0000 9.4000 0.8000
51.6000 9.4000 0.8000
27.2000 9.4000 0.8000
4.0000 8.2000 0.8000
26.0000 5.0000 0.8000
50.4000 5.0000 0.8000
74.8000 5.0000 0.8000
99.2000 5.0000 0.8000
123.6000 5.0000 0.8000
148.0000 5.0000 0.8000
172.4000 5.0000 0.8000
195.4000 6.4000 0.8000
173.0000 8.4000 0.8000
148.6000 8.4000 0.8000
124.2000 8.4000 0.8000
99.8000 8.4000 0.8000
75.4000 8.4000 0.8000
51.0000 8.4000 0.8000
26.6000 8.4000 0.8000
5.9333 6.0000 0.8000
30.6000 6.0000 0.8000
55.0000 6.0000 0.8000
79.4000 6.0000 0.8000
103.8000 6.0000 0.8000
128.2000 6.0000 0.8000
152.6000 6.0000 0.8000
177.0000 6.0000 0.8000
188.8000 7.4000 0.8000
164.4000 7.4000 0.8000
140.0000 7.4000 0.8000
115.6000 7.4000 0.8000
91.2000 7.4000 0.8000
66.8000 7.4000 0.8000
42.4000 7.4000 0.8000
18.0000 7.4000 0.8000
19.1000 6.9000 0.8000
43.5000 6.9000 0.8000
67.9000 6.9000 0.8000
92.3000 6.9000 0.8000
116.7000 6.9000 0.8000
141.1000 6.9000 0.8000
165.5000 6.9000 0.8000
189.9000 6.9000 0.8000
173.9000 6.5000 0.8000
149.5000 6.5000 0.8000
125.1000 6.5000 0.8000
100.7000 6.5000 0.8000
76.3000 6.5000 0.8000
51.9000 6.5000 0.8000
27.5000 6.5000 0.8000
7.3000 7.9000 0.8000
31.7000 7.9000 0.8000
56.1000 7.9000 0.8000
80.5000 7.9000 0.8000
104.9000 7.9000 0.8000
129.3000 7.9000 0.8000
153.7000 7.9000 0.8000
178.1000 7.9000 0.8000
189.7000 5.5000 0.8000
165.3000 5.5000 0.8000
140.9000 5.5000 0.8000
116.5000 5.5000 0.8000
92.1000 5.5000 0.8000
67.7000 5.5000 0.8000
43.3000 5.5000 0.8000
18.9000 5.5000 0.8000
11.9000 8.9000 0.8000
36.3000 8.9000 0.8000
60.7000 8.9000 0.8000
85.1000 8.9000 0.8000
109.5000 8.9000 0.8000
133.9000 8.9000 0.8000
158.3000 8.9000 0.8000
182.7000 8.9000 0.8000
189.1000 4.5000 0.8000
164.7000 4.5000 0.8000
140.3000 4.5000 0.8000
115.9000 4.5000 0.8000
91.5000 4.5000 0.8000
67.1000 4.5000 0.8000
42.7000 4.5000 0.8000
18.3000 4.5000 0.8000
8.5000 9.9000 0.8000
32.9000 9.9000 0.8000
57.3000 9.9000 0.8000
81.7000 9.9000 0.8000
106.1000 9.9000 0.8000
130.5000 9.9000 0.8000
154.9000 9.9000 0.8000
179.3000 9.9000 0.8000
196.5000 3.5000 0.8000
172.1000 3.5000 0.8000
147.7000 3.5000 0.8000
123.3000 3.5000 0.8000
98.9000 3.5000 0.8000
74.5000 3.5000 0.8000
50.1000 3.5000 0.8000
25.7000 3.5000 0.8000
2.5000 5.5000 0.8000
21.5000 10.9000 0.8000
45.9000 10.9000 0.8000
70.3000 10.9000 0.8000
94.7000 10.9000 0.8000
119.1000 10.9000 0.8000
143.5000 10.9000 0.8000
167.9000 10.9000 0.8000
192.3000 10.9000 0.8000
187.5000 2.5000 0.8000
163.1000 2.5000 0.8000
138.7000 2.5000 0.8000
114.3000 2.5000 0.8000
89.9000 2.5000 0.8000
65.5000 2.5000 0.8000
41.1000 2.5000 0.8000
16.7000 2.5000 0.8000
2.1000 11.9000 0.8000
26.5000 11.9000 0.8000
50.9000 11.9000 0.8000
75.3000 11.9000 0.8000
99.7000 11.9000 0.8000
124.1000 11.9000 0.8000
148.5000 11.9000 0.8000
172.9000 11.9000 0.8000
197.3000 11.9000 0.8000
186.5000 1.5000 0.8000
162.1000 1.5000 0.8000
137.7000 1.5000 0.8000
113.3000 1.5000 0.8000
88.9000 1.5000 0.8000
64.5000 1.5000 0.8000
40.1000 1.5000 0.8000
15.7000 1.5000 0.8000
0.5000 11.7000 0.8000
23.7000 12.9000 0.8000
48.1000 12.9000 0.8000
72.5000 12.9000 0.8000
96.9000 12.9000 0.8000
121.3000 12.9000 0.8000
145.7000 12.9000 0.8000
170.1000 12.9000 0.8000
194.5000 12.9000 0.8000
193.0657 0.5000 0.8000
168.6657 0.5000 0.8000
144.2657 0.5000 0.8000
119.8657 0.5000 0.8000
95.4657 0.5000 0.8000
71.0657 0.5000 0.8000
46.6657 0.5000 0.8000
22.2657 0.5000 0.8000
3.0657 0.5000 1.0000
27.4657 0.5000 1.0000
51.8657 0.5000 1.0000
76.2657 0.5000 1.0000
100.6657 0.5000 1.0000
125.0657 0.5000 1.0000
149.4657 0.5000 1.0000
173.8657 0.5000 1.0000
198.2657 0.5000 1.0000
189.3000 12.9000 1.0000
164.9000 12.9000 1.0000
140.5000 12.9000 1.0000
116.1000 12.9000 1.0000
91.7000 12.9000 1.0000
67.3000 12.9000 1.0000
42.9000 12.9000 1.0000
18.5000 12.9000 1.0000
0.5000 6.5000 1.0000
20.9000 1.5000 1.0000
45.3000 1.5000 1.0000
69.7000 1.5000 1.0000
94.1000 1.5000 1.0000
118.5000 1.5000 1.0000
142.9000 1.5000 1.0000
167.3000 1.5000 1.0000
191.7000 1.5000 1.0000
192.1000 11.9000 1.0000
167.7000 11.9000 1.0000
143.3000 11.9000 1.0000
118.9000 11.9000 1.0000
94.5000 11.9000 1.0000
70.1000 11.9000 1.0000
45.7000 11.9000 1.0000
21.3000 11.9000 1.0000
1.5000 7.3000 1.0000
21.9000 2.5000 1.0000
46.3000 2.5000 1.0000
70.7000 2.5000 1.0000
95.1000 2.5000 1.0000
119.5000 2.5000 1.0000
143.9000 2.5000 1.0000
168.3000 2.5000 1.0000
192.7000 2.5000 1.0000
187.1000 10.9000 1.0000
162.7000 10.9000 1.0000
138.3000 10.9000 1.0000
113.9000 10.9000 1.0000
89.5000 10.9000 1.0000
65.1000 10.9000 1.0000
40.7000 10.9000 1.0000
16.3000 10.9000 1.0000
6.5000 3.5000 1.0000
30.9000 3.5000 1.0000
55.3000 3.5000 1.0000
79.7000 3.5000 1.0000
104.1000 3.5000 1.0000
128.5000 3.5000 1.0000
152.9000 3.5000 1.0000
177.3000 3.5000 1.0000
196.9000 8.3000 1.0000
174.1000 9.9000 1.0000
149.7000 9.9000 1.0000
125.3000 9.9000 1.0000
100.9000 9.9000 1.0000
76.5000 9.9000 1.0000
52.1000 9.9000 1.0000
27.7000 9.9000 1.0000
3.5667 9.6333 1.0000
23.5000 4.5000 1.0000
47.9000 4.5000 1.0000
72.3000 4.5000 1.0000
96.7000 4.5000 1.0000
121.1000 4.5000 1.0000
145.5000 4.5000 1.0000
169.9000 4.5000 1.0000
194.3000 4.5000 1.0000
177.5000 8.9000 1.0000
153.1000 8.9000 1.0000
128.7000 8.9000 1.0000
104.3000 8.9000 1.0000
79.9000 8.9000 1.0000
55.5000 8.9000 1.0000
31.1000 8.9000 1.0000
6.7000 8.9000 1.0000
24.1000 5.5000 1.0000
48.5000 5.5000 1.0000
72.9000 5.5000 1.0000
97.3000 5.5000 1.0000
121.7000 5.5000 1.0000
146.1000 5.5000 1.0000
170.5000 5.5000 1.0000
194.7667 5.6333 1.0000
172.9000 7.9000 1.0000
148.5000 7.9000 1.0000
124.1000 7.9000 1.0000
99.7000 7.9000 1.0000
75.3000 7.9000 1.0000
50.9000 7.9000 1.0000
26.5000 7.9000 1.0000
8.3000 6.5000 1.0000
32.7000 6.5000 1.0000
57.1000 6.5000 1.0000
81.5000 6.5000 1.0000
105.9000 6.5000 1.0000
130.3000 6.5000 1.0000
154.7000 6.5000 1.0000
179.1000 6.5000 1.0000
184.7000 6.9000 1.0000
160.3000 6.9000 1.0000
135.9000 6.9000 1.0000
111.5000 6.9000 1.0000
87.1000 6.9000 1.0000
62.7000 6.9000 1.0000
38.3000 6.9000 1.0000
13.9000 6.9000 1.0000
23.2000 7.4000 1.0000
47.6000 7.4000 1.0000
72.0000 7.4000 1.0000
96.4000 7.4000 1.0000
120.8000 7.4000 1.0000
145.2000 7.4000 1.0000
169.6000 7.4000 1.0000
194.0000 7.4000 1.0000
171.8000 6.0000 1.0000
147.4000 6.0000 1.0000
123.0000 6.0000 1.0000
98.6000 6.0000 1.0000
74.2000 6.0000 1.0000
49.8000 6.0000 1.0000
25.4000 6.0000 1.0000
7.4000 8.4000 1.0000
31.8000 8.4000 1.0000
56.2000 8.4000 1.0000
80.6000 8.4000 1.0000
105.0000 8.4000 1.0000
129.4000 8.4000 1.0000
153.8000 8.4000 1.0000
178.2000 8.4000 1.0000
191.6000 5.0000 1.0000
167.2000 5.0000 1.0000
142.8000 5.0000 1.0000
118.4000 5.0000 1.0000
94.0000 5.0000 1.0000
69.6000 5.0000 1.0000
45.2000 5.0000 1.0000
20.8000 5.0000 1.0000
8.0000 9.4000 1.0000
32.4000 9.4000 1.0000
56.8000 9.4000 1.0000
81.2000 9.4000 1.0000
105.6000 9.4000 1.0000
130.0000 9.4000 1.0000
154.4000 9.4000 1.0000
178.8000 9.4000 1.0000
195.0000 4.0000 1.0000
170.6000 4.0000 1.0000
146.2000 4.0000 1.0000
121.8000 4.0000 1.0000
97.4000 4.0000 1.0000
73.0000 4.0000 1.0000
48.6000 4.0000 1.0000
24.2000 4.0000 1.0000
3.0000 8.0000 1.0000
25.0000 10.4000 1.0000
49.4000 10.4000 1.0000
73.8000 10.4000 1.0000
98.2000 10.4000 1.0000
122.6000 10.4000 1.0000
147.0000 10.4000 1.0000
171.4000 10.4000 1.0000
195.8000 10.4000 1.0000
182.0000 3.0000 1.0000
157.6000 3.0000 1.0000
133.2000 3.0000 1.0000
108.8000 3.0000 1.0000
84.4000 3.0000 1.0000
60.0000 3.0000 1.0000
35.6000 3.0000 1.0000
11.2000 3.0000 1.0000
9.6000 11.4000 1.0000
34.0000 11.4000 1.0000
58.4000 11.4000 1.0000
82.8000 11.4000 1.0000
107.2000 11.4000 1.0000
131.6000 11.4000 1.0000
156.0000 11.4000 1.0000
180.4000 11.4000 1.0000
198.4000 5.0000 1.0000
177.0000 2.0000 1.0000
152.6000 2.0000 1.0000
128.2000 2.0000 1.0000
103.8000 2.0000 1.0000
79.4000 2.0000 1.0000
55.0000 2.0000 1.0000
30.6000 2.0000 1.0000
6.2000 2.0000 1.0000
10.6000 12.4000 1.0000
35.0000 12.4000 1.0000
59.4000 12.4000 1.0000
83.8000 12.4000 1.0000
108.2000 12.4000 1.0000
132.6000 12.4000 1.0000
157.0000 12.4000 1.0000
181.4000 12.4000 1.0000
199.4000 6.0000 1.0000
180.0000 1.0000 1.0000
155.6000 1.0000 1.0000
131.2000 1.0000 1.0000
106.8000 1.0000 1.0000
82.4000 1.0000 1.0000
58.0000 1.0000 1.0000
33.6000 1.0000 1.0000
9.2000 1.0000 1.0000
15.6000 1.0000 1.2000
40.0000 1.0000 1.2000
64.4000 1.0000 1.2000
88.8000 1.0000 1.2000
113.2000 1.0000 1.2000
137.6000 1.0000 1.2000
162.0000 1.0000 1.2000
186.4000 1.0000 1.2000
199.2667 12.2667 1.2000
175.0000 12.4000 1.2000
150.6000 12.4000 1.2000
126.2000 12.4000 1.2000
101.8000 12.4000 1.2000
77.4000 12.4000 1.2000
53.0000 12.4000 1.2000
28.6000 12.4000 1.2000
4.2000 12.4000 1.2000
12.6000 2.0000 1.2000
37.0000 2.0000 1.2000
61.4000 2.0000 1.2000
85.8000 2.0000 1.2000
110.2000 2.0000 1.2000
134.6000 2.0000 1.2000
159.0000 2.0000 1.2000
183.4000 2.0000 1.2000
198.2667 11.2667 1.2000
174.0000 11.4000 1.2000
149.6000 11.4000 1.2000
125.2000 11.4000 1.2000
100.8000 11.4000 1.2000
76.4000 11.4000 1.2000
52.0000 11.4000 1.2000
27.6000 11.4000 1.2000
3.2000 11.4000 1.2000
17.6000 3.0000 1.2000
42.0000 3.0000 1.2000
66.4000 3.0000 1.2000
90.8000 3.0000 1.2000
115.2000 3.0000 1.2000
139.6000 3.0000 1.2000
164.0000 3.0000 1.2000
188.4000 3.0000 1.2000
189.4000 10.4000 1.2000
165.0000 10.4000 1.2000
140.6000 10.4000 1.2000
116.2000 10.4000 1.2000
91.8000 10.4000 1.2000
67.4000 10.4000 1.2000
43.0000 10.4000 1.2000
18.6000 10.4000 1.2000
6.2000 4.0000 1.2000
30.6000 4.0000 1.2000
55.0000 4.0000 1.2000
79.4000 4.0000 1.2000
103.8000 4.0000 1.2000
128.2000 4.0000 1.2000
152.6000 4.0000 1.2000
177.0000 4.0000 1.2000
196.4000 9.0000 1.2000
172.4000 9.4000 1.2000
148.0000 9.4000 1.2000
123.6000 9.4000 1.2000
99.2000 9.4000 1.2000
74.8000 9.4000 1.2000
50.4000 9.4000 1.2000
26.0000 9.4000 1.2000
4.0000 7.0000 1.2000
27.2000 5.0000 1.2000
51.6000 5.0000 1.2000
76.0000 5.0000 1.2000
100.4000 5.0000 1.2000
124.8000 5.0000 1.2000
149.2000 5.0000 1.2000
173.6000 5.0000 1.2000
195.4000 7.6000 1.2000
171.8000 8.4000 1.2000
147.4000 8.4000 1.2000
123.0000 8.4000 1.2000
98.6000 8.4000 1.2000
74.2000 8.4000 1.2000
49.8000 8.4000 1.2000
25.4000 8.4000 1.2000
7.4000 6.0000 1.2000
31.8000 6.0000 1.2000
56.2000 6.0000 1.2000
80.6000 6.0000 1.2000
105.0000 6.0000 1.2000
129.4000 6.0000 1.2000
153.8000 6.0000 1.2000
178.2000 6.0000 1.2000
187.6000 7.4000 1.2000
163.2000 7.4000 1.2000
138.8000 7.4000 1.2000
114.4000 7.4000 1.2000
90.0000 7.4000 1.2000
65.6000 7.4000 1.2000
41.2000 7.4000 1.2000
16.8000 7.4000 1.2000
20.3000 6.9000 1.2000
44.7000 6.9000 1.2000
69.1000 6.9000 1.2000
93.5000 6.9000 1.2000
117.9000 6.9000 1.2000
142.3000 6.9000 1.2000
166.7000 6.9000 1.2000
191.1000 6.9000 1.2000
172.7000 6.5000 1.2000
148.3000 6.5000 1.2000
123.9000 6.5000 1.2000
99.5000 6.5000 1.2000
75.1000 6.5000 1.2000
50.7000 6.5000 1.2000
26.3000 6.5000 1.2000
8.5000 7.9000 1.2000
32.9000 7.9000 1.2000
57.3000 7.9000 1.2000
81.7000 7.9000 1.2000
106.1000 7.9000 1.2000
130.5000 7.9000 1.2000
154.9000 7.9000 1.2000
179.3000 7.9000 1.2000
188.5000 5.5000 1.2000
164.1000 5.5000 1.2000
139.7000 5.5000 1.2000
115.3000 5.5000 1.2000
90.9000 5.5000 1.2000
66.5000 5.5000 1.2000
42.1000 5.5000 1.2000
17.7000 5.5000 1.2000
13.1000 8.9000 1.2000
37.5000 8.9000 1.2000
61.9000 8.9000 1.2000
86.3000 8.9000 1.2000
110.7000 8.9000 1.2000
135.1000 8.9000 1.2000
159.5000 8.9000 1.2000
183.9000 8.9000 1.2000
187.9000 4.5000 1.2000
163.5000 4.5000 1.2000
139.1000 4.5000 1.2000
114.7000 4.5000 1.2000
90.3000 4.5000 1.2000
65.9000 4.5000 1.2000
41.5000 4.5000 1.2000
17.1000 4.5000 1.2000
9.7000 9.9000 1.2000
34.1000 9.9000 1.2000
58.5000 9.9000 1.2000
82.9000 9.9000 1.2000
107.3000 9.9000 1.2000
131.7000 9.9000 1.2000
156.1000 9.9000 1.2000
180.5000 9.9000 1.2000
195.3000 3.5000 1.2000
170.9000 3.5000 1.2000
146.5000 3.5000 1.2000
122.1000 3.5000 1.2000
97.7000 3.5000 1.2000
73.3000 3.5000 1.2000
48.9000 3.5000 1.2000
24.5000 3.5000 1.2000
2.5000 6.7000 1.2000
22.7000 10.9000 1.2000
47.1000 10.9000 1.2000
71.5000 10.9000 1.2000
95.9000 10.9000 1.2000
120.3000 10.9000 1.2000
144.7000 10.9000 1.2000
169.1000 10.9000 1.2000
193.5000 10.9000 1.2000
186.3000 2.5000 1.2000
161.9000 2.5000 1.2000
137.5000 2.5000 1.2000
113.1000 2.5000 1.2000
88.7000 2.5000 1.2000
64.3000 2.5000 1.2000
39.9000 2.5000 1.2000
15.5000 2.5000 1.2000
3.3000 11.9000 1.2000
27.7000 11.9000 1.2000
52.1000 11.9000 1.2000
76.5000 11.9000 1.2000
100.9000 11.9000 1.2000
125.3000 11.9000 1.2000
149.7000 11.9000 1.2000
174.1000 11.9000 1.2000
198.5000 11.9000 1.2000
185.3000 1.5000 1.2000
160.9000 1.5000 1.2000
136.5000 1.5000 1.2000
112.1000 1.5000 1.2000
87.7000 1.5000 1.2000
63.3000 1.5000 1.2000
38.9000 1.5000 1.2000
14.5000 1.5000 1.2000
0.6333 12.7667 1.2000
24.9000 12.9000 1.2000
49.3000 12.9000 1.2000
73.7000 12.9000 1.2000
98.1000 12.9000 1.2000
122.5000 12.9000 1.2000
146.9000 12.9000 1.2000
171.3000 12.9000 1.2000
195.7000 12.9000 1.2000
191.8657 0.5000 1.2000
167.4657 0.5000 1.2000
143.0657 0.5000 1.2000
118.6657 0.5000 1.2000
94.2657 0.5000 1.2000
69.8657 0.5000 1.2000
45.4657 0.5000 1.2000
21.0657 0.5000 1.2000
4.2657 0.5000 1.4000
28.6657 0.5000 1.4000
53.0657 0.5000 1.4000
77.4657 0.5000 1.4000
101.8657 0.5000 1.4000
126.2657 0.5000 1.4000
150.6657 0.5000 1.4000
175.0657 0.5000 1.4000
199.4495 0.5391 1.4000
188.1000 12.9000 1.4000
163.7000 12.9000 1.4000
139.3000 12.9000 1.4000
114.9000 12.9000 1.4000
90.5000 12.9000 1.4000
66.1000 12.9000 1.4000
41.7000 12.9000 1.4000
17.3000 12.9000 1.4000
0.5000 5.3000 1.4000
22.1000 1.5000 1.4000
46.5000 1.5000 1.4000
70.9000 1.5000 1.4000
95.3000 1.5000 1.4000
119.7000 1.5000 1.4000
144.1000 1.5000 1.4000
168.5000 1.5000 1.4000
192.9000 1.5000 1.4000
190.9000 11.9000 1.4000
166.5000 11.9000 1.4000
142.1000 11.9000 1.4000
117.7000 11.9000 1.4000
93.3000 11.9000 1.4000
68.9000 11.9000 1.4000
44.5000 11.9000 1.4000
20.1000 11.9000 1.4000
1.5000 6.1000 1.4000
23.1000 2.5000 1.4000
47.5000 2.5000 1.4000
71.9000 2.5000 1.4000
96.3000 2.5000 1.4000
120.7000 2.5000 1.4000
145.1000 2.5000 1.4000
169.5000 2.5000 1.4000
193.9000 2.5000 1.4000
185.9000 10.9000 1.4000
161.5000 10.9000 1.4000
137.1000 10.9000 1.4000
112.7000 10.9000 1.4000
88.3000 10.9000 1.4000
63.9000 10.9000 1.4000
39.5000 10.9000 1.4000
15.1000 10.9000 1.4000
7.7000 3.5000 1.4000
32.1000 3.5000 1.4000
56.5000 3.5000 1.4000
80.9000 3.5000 1.4000
105.3000 3.5000 1.4000
129.7000 3.5000 1.4000
154.1000 3.5000 1.4000
178.5000 3.5000 1.4000
196.9000 9.5000 1.4000
172.9000 9.9000 1.4000
148.5000 9.9000 1.4000
124.1000 9.9000 1.4000
99.7000 9.9000 1.4000
75.3000 9.9000 1.4000
50.9000 9.9000 1.4000
26.5000 9.9000 1.4000
3.5000 8.5000 1.4000
24.7000 4.5000 1.4000
49.1000 4.5000 1.4000
73.5000 4.5000 1.4000
97.9000 4.5000 1.4000
122.3000 4.5000 1.4000
146.7000 4.5000 1.4000
171.1000 4.5000 1.4000
195.5000 4.5000 1.4000
176.3000 8.9000 1.4000
151.9000 8.9000 1.4000
127.5000 8.9000 1.4000
103.1000 8.9000 1.4000
78.7000 8.9000 1.4000
54.3000 8.9000 1.4000
29.9000 8.9000 1.4000
5.5000 8.9000 1.4000
25.3000 5.5000 1.4000
49.7000 5.5000 1.4000
74.1000 5.5000 1.4000
98.5000 5.5000 1.4000
122.9000 5.5000 1.4000
147.3000 5.5000 1.4000
171.7000 5.5000 1.4000
194.9000 6.7000 1.4000
171.7000 7.9000 1.4000
147.3000 7.9000 1.4000
122.9000 7.9000 1.4000
98.5000 7.9000 1.4000
74.1000 7.9000 1.4000
49.7000 7.9000 1.4000
25.3000 7.9000 1.4000
9.5000 6.5000 1.4000
33.9000 6.5000 1.4000
58.3000 6.5000 1.4000
82.7000 6.5000 1.4000
107.1000 6.5000 1.4000
131.5000 6.5000 1.4000
155.9000 6.5000 1.4000
180.3000 6.5000 1.4000
183.5000 6.9000 1.4000
159.1000 6.9000 1.4000
134.7000 6.9000 1.4000
110.3000 6.9000 1.4000
85.9000 6.9000 1.4000
61.5000 6.9000 1.4000
37.1000 6.9000 1.4000
12.7000 6.9000 1.4000
24.4000 7.4000 1.4000
48.8000 7.4000 1.4000
73.2000 7.4000 1.4000
97.6000 7.4000 1.4000
122.0000 7.4000 1.4000
146.4000 7.4000 1.4000
170.8000 7.4000 1.4000
194.4000 6.6000 1.4000
170.6000 6.0000 1.4000
146.2000 6.0000 1.4000
121.8000 6.0000 1.4000
97.4000 6.0000 1.4000
73.0000 6.0000 1.4000
48.6000 6.0000 1.4000
24.2000 6.0000 1.4000
8.6000 8.4000 1.4000
33.0000 8.4000 1.4000
57.4000 8.4000 1.4000
81.8000 8.4000 1.4000
106.2000 8.4000 1.4000
130.6000 8.4000 1.4000
155.0000 8.4000 1.4000
179.4000 8.4000 1.4000
190.4000 5.0000 1.4000
166.0000 5.0000 1.4000
141.6000 5.0000 1.4000
117.2000 5.0000 1.4000
92.8000 5.0000 1.4000
68.4000 5.0000 1.4000
44.0000 5.0000 1.4000
19.6000 5.0000 1.4000
9.2000 9.4000 1.4000
33.6000 9.4000 1.4000
58.0000 9.4000 1.4000
82.4000 9.4000 1.4000
106.8000 9.4000 1.4000
131.2000 9.4000 1.4000
155.6000 9.4000 1.4000
180.0000 9.4000 1.4000
193.8000 4.0000 1.4000
169.4000 4.0000 1.4000
145.0000 4.0000 1.4000
120.6000 4.0000 1.4000
96.2000 4.0000 1.4000
71.8000 4.0000 1.4000
47.4000 4.0000 1.4000
23.0000 4.0000 1.4000
3.0000 9.2000 1.4000
26.2000 10.4000 1.4000
50.6000 10.4000 1.4000
75.0000 10.4000 1.4000
99.4000 10.4000 1.4000
123.8000 10.4000 1.4000
148.2000 10.4000 1.4000
172.6000 10.4000 1.4000
197.0000 10.4000 1.4000
180.8000 3.0000 1.4000
156.4000 3.0000 1.4000
132.0000 3.0000 1.4000
107.6000 3.0000 1.4000
83.2000 3.0000 1.4000
58.8000 3.0000 1.4000
34.4000 3.0000 1.4000
10.0000 3.0000 1.4000
10.8000 11.4000 1.4000
35.2000 11.4000 1.4000
59.6000 11.4000 1.4000
84.0000 11.4000 1.4000
108.4000 11.4000 1.4000
132.8000 11.4000 1.4000
157.2000 11.4000 1.4000
181.6000 11.4000 1.4000
198.4000 3.8000 1.4000
175.8000 2.0000 1.4000
151.4000 2.0000 1.4000
127.0000 2.0000 1.4000
102.6000 2.0000 1.4000
78.2000 2.0000 1.4000
53.8000 2.0000 1.4000
29.4000 2.0000 1.4000
5.0000 2.0000 1.4000
11.8000 12.4000 1.4000
36.2000 12.4000 1.4000
60.6000 12.4000 1.4000
85.0000 12.4000 1.4000
109.4000 12.4000 1.4000
133.8000 12.4000 1.4000
158.2000 12.4000 1.4000
182.6000 12.4000 1.4000
199.4000 4.8000 1.4000
178.8000 1.0000 1.4000
154.4000 1.0000 1.4000
130.0000 1.0000 1.4000
105.6000 1.0000 1.4000
81.2000 1.0000 1.4000
56.8000 1.0000 1.4000
32.4000 1.0000 1.4000
8.0000 1.0000 1.4000
0.5000 0.9000 1.4000