File: experimental_data/tensile_specimen_test_data/TXT/(3)RD2001314-0.2,0.15.txt
0.6657 0.5000 0.2000
35.0657 0.5000 0.2000
69.4657 0.5000 0.2000
103.8657 0.5000 0.2000
138.2657 0.5000 0.2000
172.6657 0.5000 0.2000
199.9000 7.7828 0.2000
170.5000 12.9000 0.2000
136.1000 12.9000 0.2000
101.7000 12.9000 0.2000
67.3000 12.9000 0.2000
32.9000 12.9000 0.2000
0.5000 10.9000 0.2000
26.5000 1.5000 0.2000
60.9000 1.5000 0.2000
95.3000 1.5000 0.2000
129.7000 1.5000 0.2000
164.1000 1.5000 0.2000
198.5000 1.5000 0.2000
175.3000 11.9000 0.2000
140.9000 11.9000 0.2000
106.5000 11.9000 0.2000
72.1000 11.9000 0.2000
37.7000 11.9000 0.2000
3.3000 11.9000 0.2000
25.5000 2.5000 0.2000
59.9000 2.5000 0.2000
94.3000 2.5000 0.2000
128.7000 2.5000 0.2000
163.1000 2.5000 0.2000
197.5000 2.5000 0.2000
172.3000 10.9000 0.2000
137.9000 10.9000 0.2000
103.5000 10.9000 0.2000
69.1000 10.9000 0.2000
34.7000 10.9000 0.2000
2.5000 8.7000 0.2000
32.5000 3.5000 0.2000
66.9000 3.5000 0.2000
101.3000 3.5000 0.2000
135.7000 3.5000 0.2000
170.1000 3.5000 0.2000
195.7000 9.9000 0.2000
161.3000 9.9000 0.2000
126.9000 9.9000 0.2000
92.5000 9.9000 0.2000
58.1000 9.9000 0.2000
23.7000 9.9000 0.2000
13.1000 4.5000 0.2000
47.5000 4.5000 0.2000
81.9000 4.5000 0.2000
116.3000 4.5000 0.2000
150.7000 4.5000 0.2000
185.1000 4.5000 0.2000
176.7000 8.9000 0.2000
142.3000 8.9000 0.2000
107.9000 8.9000 0.2000
73.5000 8.9000 0.2000
39.1000 8.9000 0.2000
4.7667 8.8333 0.2000
36.1000 5.5000 0.2000
70.5000 5.5000 0.2000
104.9000 5.5000 0.2000
139.3000 5.5000 0.2000
173.7000 5.5000 0.2000
184.1000 7.9000 0.2000
149.7000 7.9000 0.2000
115.3000 7.9000 0.2000
80.9000 7.9000 0.2000
46.5000 7.9000 0.2000
12.1000 7.9000 0.2000
32.7000 6.5000 0.2000
67.1000 6.5000 0.2000
101.5000 6.5000 0.2000
135.9000 6.5000 0.2000
170.3000 6.5000 0.2000
183.5000 6.9000 0.2000
149.1000 6.9000 0.2000
114.7000 6.9000 0.2000
80.3000 6.9000 0.2000
45.9000 6.9000 0.2000
11.5000 6.9000 0.2000
35.6000 7.4000 0.2000
70.0000 7.4000 0.2000
104.4000 7.4000 0.2000
138.8000 7.4000 0.2000
173.2000 7.4000 0.2000
182.6000 6.0000 0.2000
148.2000 6.0000 0.2000
113.8000 6.0000 0.2000
79.4000 6.0000 0.2000
45.0000 6.0000 0.2000
10.6000 6.0000 0.2000
32.2000 8.4000 0.2000
66.6000 8.4000 0.2000
101.0000 8.4000 0.2000
135.4000 8.4000 0.2000
169.8000 8.4000 0.2000
190.0000 5.0000 0.2000
155.6000 5.0000 0.2000
121.2000 5.0000 0.2000
86.8000 5.0000 0.2000
52.4000 5.0000 0.2000
18.0000 5.0000 0.2000
20.8000 9.4000 0.2000
55.2000 9.4000 0.2000
89.6000 9.4000 0.2000
124.0000 9.4000 0.2000
158.4000 9.4000 0.2000
192.8000 9.4000 0.2000
171.0000 4.0000 0.2000
136.6000 4.0000 0.2000
102.2000 4.0000 0.2000
67.8000 4.0000 0.2000
33.4000 4.0000 0.2000
3.0000 8.8000 0.2000
35.8000 10.4000 0.2000
70.2000 10.4000 0.2000
104.6000 10.4000 0.2000
139.0000 10.4000 0.2000
173.4000 10.4000 0.2000
194.4000 3.0000 0.2000
160.0000 3.0000 0.2000
125.6000 3.0000 0.2000
91.2000 3.0000 0.2000
56.8000 3.0000 0.2000
22.4000 3.0000 0.2000
8.4000 11.4000 0.2000
42.8000 11.4000 0.2000
77.2000 11.4000 0.2000
111.6000 11.4000 0.2000
146.0000 11.4000 0.2000
180.4000 11.4000 0.2000
191.4000 2.0000 0.2000
157.0000 2.0000 0.2000
122.6000 2.0000 0.2000
88.2000 2.0000 0.2000
53.8000 2.0000 0.2000
19.4000 2.0000 0.2000
7.4000 12.4000 0.2000
41.8000 12.4000 0.2000
76.2000 12.4000 0.2000
110.6000 12.4000 0.2000
145.0000 12.4000 0.2000
179.4000 12.4000 0.2000
196.4000 1.0000 0.2000
162.0000 1.0000 0.2000
127.6000 1.0000 0.2000
93.2000 1.0000 0.2000
58.8000 1.0000 0.2000
24.4000 1.0000 0.2000
10.3000 0.9000 0.3500
44.7000 0.9000 0.3500
79.1000 0.9000 0.3500
113.5000 0.9000 0.3500
147.9000 0.9000 0.3500
182.3000 0.9000 0.3500
193.9000 12.5000 0.3500
159.5000 12.5000 0.3500
125.1000 12.5000 0.3500
90.7000 12.5000 0.3500
56.3000 12.5000 0.3500
21.9000 12.5000 0.3500
4.3000 1.7000 0.3500
38.7000 1.7000 0.3500
73.1000 1.7000 0.3500
107.5000 1.7000 0.3500
141.9000 1.7000 0.3500
176.3000 1.7000 0.3500
196.7000 11.7000 0.3500
162.3000 11.7000 0.3500
127.9000 11.7000 0.3500
93.5000 11.7000 0.3500
59.1000 11.7000 0.3500
24.7000 11.7000 0.3500
4.7000 2.5000 0.3500
39.1000 2.5000 0.3500
73.5000 2.5000 0.3500
107.9000 2.5000 0.3500
142.3000 2.5000 0.3500
176.7000 2.5000 0.3500
193.1000 10.9000 0.3500
158.7000 10.9000 0.3500
124.3000 10.9000 0.3500
89.9000 10.9000 0.3500
55.5000 10.9000 0.3500
21.1000 10.9000 0.3500
11.5000 3.3000 0.3500
45.9000 3.3000 0.3500
80.3000 3.3000 0.3500
114.7000 3.3000 0.3500
149.1000 3.3000 0.3500
183.5000 3.3000 0.3500
183.1000 10.1000 0.3500
148.7000 10.1000 0.3500
114.3000 10.1000 0.3500
79.9000 10.1000 0.3500
45.5000 10.1000 0.3500
11.1000 10.1000 0.3500
24.7000 4.1000 0.3500
59.1000 4.1000 0.3500
93.5000 4.1000 0.3500
127.9000 4.1000 0.3500
162.3000 4.1000 0.3500
196.3000 4.5000 0.3500
166.7000 9.3000 0.3500
132.3000 9.3000 0.3500
97.9000 9.3000 0.3500
63.5000 9.3000 0.3500
29.1000 9.3000 0.3500
9.9000 4.9000 0.3500
44.3000 4.9000 0.3500
78.7000 4.9000 0.3500
113.1000 4.9000 0.3500
147.5000 4.9000 0.3500
181.9000 4.9000 0.3500
178.3000 8.5000 0.3500
143.9000 8.5000 0.3500
109.5000 8.5000 0.3500
75.1000 8.5000 0.3500
40.7000 8.5000 0.3500
6.3000 8.5000 0.3500
35.9000 5.7000 0.3500
70.3000 5.7000 0.3500
104.7000 5.7000 0.3500
139.1000 5.7000 0.3500
173.5000 5.7000 0.3500
183.5000 7.7000 0.3500
149.1000 7.7000 0.3500
114.7000 7.7000 0.3500
80.3000 7.7000 0.3500
45.9000 7.7000 0.3500
11.5000 7.7000 0.3500
33.9000 6.5000 0.3500
68.3000 6.5000 0.3500
102.7000 6.5000 0.3500
137.1000 6.5000 0.3500
171.5000 6.5000 0.3500
182.3000 6.9000 0.3500
147.9000 6.9000 0.3500
113.5000 6.9000 0.3500
79.1000 6.9000 0.3500
44.7000 6.9000 0.3500
10.3000 6.9000 0.3500
37.1000 7.3000 0.3500
71.5000 7.3000 0.3500
105.9000 7.3000 0.3500
140.3000 7.3000 0.3500
174.7000 7.3000 0.3500
180.7000 6.1000 0.3500
146.3000 6.1000 0.3500
111.9000 6.1000 0.3500
77.5000 6.1000 0.3500
43.1000 6.1000 0.3500
8.7000 6.1000 0.3500
35.1000 8.1000 0.3500
69.5000 8.1000 0.3500
103.9000 8.1000 0.3500
138.3000 8.1000 0.3500
172.7000 8.1000 0.3500
185.9000 5.3000 0.3500
151.5000 5.3000 0.3500
117.1000 5.3000 0.3500
82.7000 5.3000 0.3500
48.3000 5.3000 0.3500
13.9000 5.3000 0.3500
26.7000 8.9000 0.3500
61.1000 8.9000 0.3500
95.5000 8.9000 0.3500
129.9000 8.9000 0.3500
164.3000 8.9000 0.3500
195.9000 6.1000 0.3500
163.1000 4.5000 0.3500
128.7000 4.5000 0.3500
94.3000 4.5000 0.3500
59.9000 4.5000 0.3500
25.5000 4.5000 0.3500
11.9000 9.7000 0.3500
46.3000 9.7000 0.3500
80.7000 9.7000 0.3500
115.1000 9.7000 0.3500
149.5000 9.7000 0.3500
183.9000 9.7000 0.3500
181.1000 3.7000 0.3500
146.7000 3.7000 0.3500
112.3000 3.7000 0.3500
77.9000 3.7000 0.3500
43.5000 3.7000 0.3500
9.1000 3.7000 0.3500
25.1000 10.5000 0.3500
59.5000 10.5000 0.3500
93.9000 10.5000 0.3500
128.3000 10.5000 0.3500
162.7000 10.5000 0.3500
197.1000 10.5000 0.3500
171.1000 2.9000 0.3500
136.7000 2.9000 0.3500
102.3000 2.9000 0.3500
67.9000 2.9000 0.3500
33.5000 2.9000 0.3500
2.1000 6.7000 0.3500
31.9000 11.3000 0.3500
66.3000 11.3000 0.3500
100.7000 11.3000 0.3500
135.1000 11.3000 0.3500
169.5000 11.3000 0.3500
198.3000 5.7000 0.3500
167.5000 2.1000 0.3500
133.1000 2.1000 0.3500
98.7000 2.1000 0.3500
64.3000 2.1000 0.3500
29.9000 2.1000 0.3500
1.3000 8.7000 0.3500
32.3000 12.1000 0.3500
66.7000 12.1000 0.3500
101.1000 12.1000 0.3500
135.5000 12.1000 0.3500
169.9000 12.1000 0.3500
199.1000 6.9000 0.3500
170.3000 1.3000 0.3500
135.9000 1.3000 0.3500
101.5000 1.3000 0.3500
67.1000 1.3000 0.3500
32.7000 1.3000 0.3500
0.5000 4.1000 0.3500
26.1000 12.9000 0.3500
60.5000 12.9000 0.3500
94.9000 12.9000 0.3500
129.3000 12.9000 0.3500
163.7000 12.9000 0.3500
198.1000 12.9000 0.3500
179.4657 0.5000 0.3500
145.0657 0.5000 0.3500
110.6657 0.5000 0.3500
76.2657 0.5000 0.3500
41.8657 0.5000 0.3500
7.4657 0.5000 0.3500
27.8657 0.5000 0.5000
62.2657 0.5000 0.5000
96.6657 0.5000 0.5000
131.0657 0.5000 0.5000
165.4657 0.5000 0.5000
199.7276 0.7000 0.5000
177.7000 12.9000 0.5000
143.3000 12.9000 0.5000
108.9000 12.9000 0.5000
74.5000 12.9000 0.5000
40.1000 12.9000 0.5000
5.7000 12.9000 0.5000
19.3000 1.5000 0.5000
53.7000 1.5000 0.5000
88.1000 1.5000 0.5000
122.5000 1.5000 0.5000
156.9000 1.5000 0.5000
191.3000 1.5000 0.5000
182.5000 11.9000 0.5000
148.1000 11.9000 0.5000
113.7000 11.9000 0.5000
79.3000 11.9000 0.5000
44.9000 11.9000 0.5000
10.5000 11.9000 0.5000
18.3000 2.5000 0.5000
52.7000 2.5000 0.5000
87.1000 2.5000 0.5000
121.5000 2.5000 0.5000
155.9000 2.5000 0.5000
190.3000 2.5000 0.5000
179.5000 10.9000 0.5000
145.1000 10.9000 0.5000
110.7000 10.9000 0.5000
76.3000 10.9000 0.5000
41.9000 10.9000 0.5000
7.5000 10.9000 0.5000
25.3000 3.5000 0.5000
59.7000 3.5000 0.5000
94.1000 3.5000 0.5000
128.5000 3.5000 0.5000
162.9000 3.5000 0.5000
196.9000 3.9000 0.5000
168.5000 9.9000 0.5000
134.1000 9.9000 0.5000
99.7000 9.9000 0.5000
65.3000 9.9000 0.5000
30.9000 9.9000 0.5000
5.9000 4.5000 0.5000
40.3000 4.5000 0.5000
74.7000 4.5000 0.5000
109.1000 4.5000 0.5000
143.5000 4.5000 0.5000
177.9000 4.5000 0.5000
183.9000 8.9000 0.5000
149.5000 8.9000 0.5000
115.1000 8.9000 0.5000
80.7000 8.9000 0.5000
46.3000 8.9000 0.5000
11.9000 8.9000 0.5000
28.9000 5.5000 0.5000
63.3000 5.5000 0.5000
97.7000 5.5000 0.5000
132.1000 5.5000 0.5000
166.5000 5.5000 0.5000
191.3000 7.9000 0.5000
156.9000 7.9000 0.5000
122.5000 7.9000 0.5000
88.1000 7.9000 0.5000
53.7000 7.9000 0.5000
19.3000 7.9000 0.5000
25.5000 6.5000 0.5000
59.9000 6.5000 0.5000
94.3000 6.5000 0.5000
128.7000 6.5000 0.5000
163.1000 6.5000 0.5000
190.7000 6.9000 0.5000
156.3000 6.9000 0.5000
121.9000 6.9000 0.5000
87.5000 6.9000 0.5000
53.1000 6.9000 0.5000
18.7000 6.9000 0.5000
28.4000 7.4000 0.5000
62.8000 7.4000 0.5000
97.2000 7.4000 0.5000
131.6000 7.4000 0.5000
166.0000 7.4000 0.5000
189.8000 6.0000 0.5000
155.4000 6.0000 0.5000
121.0000 6.0000 0.5000
86.6000 6.0000 0.5000
52.2000 6.0000 0.5000
17.8000 6.0000 0.5000
25.0000 8.4000 0.5000
59.4000 8.4000 0.5000
93.8000 8.4000 0.5000
128.2000 8.4000 0.5000
162.6000 8.4000 0.5000
195.4000 6.8000 0.5000
162.8000 5.0000 0.5000
128.4000 5.0000 0.5000
94.0000 5.0000 0.5000
59.6000 5.0000 0.5000
25.2000 5.0000 0.5000
13.6000 9.4000 0.5000
48.0000 9.4000 0.5000
82.4000 9.4000 0.5000
116.8000 9.4000 0.5000
151.2000 9.4000 0.5000
185.6000 9.4000 0.5000
178.2000 4.0000 0.5000
143.8000 4.0000 0.5000
109.4000 4.0000 0.5000
75.0000 4.0000 0.5000
40.6000 4.0000 0.5000
6.2000 4.0000 0.5000
28.6000 10.4000 0.5000
63.0000 10.4000 0.5000
97.4000 10.4000 0.5000
131.8000 10.4000 0.5000
166.2000 10.4000 0.5000
197.4000 7.2000 0.5000
167.2000 3.0000 0.5000
132.8000 3.0000 0.5000
98.4000 3.0000 0.5000
64.0000 3.0000 0.5000
29.6000 3.0000 0.5000
2.0000 10.6000 0.5000
35.6000 11.4000 0.5000
70.0000 11.4000 0.5000
104.4000 11.4000 0.5000
138.8000 11.4000 0.5000
173.2000 11.4000 0.5000
198.3333 2.2667 0.5000
164.2000 2.0000 0.5000
129.8000 2.0000 0.5000
95.4000 2.0000 0.5000
61.0000 2.0000 0.5000
26.6000 2.0000 0.5000
1.0000 11.6000 0.5000
34.6000 12.4000 0.5000
69.0000 12.4000 0.5000
103.4000 12.4000 0.5000
137.8000 12.4000 0.5000
172.2000 12.4000 0.5000
199.4000 5.2000 0.5000
169.2000 1.0000 0.5000
134.8000 1.0000 0.5000
100.4000 1.0000 0.5000
66.0000 1.0000 0.5000
31.6000 1.0000 0.5000
3.1000 0.9000 0.6500
37.5000 0.9000 0.6500
71.9000 0.9000 0.6500
106.3000 0.9000 0.6500
140.7000 0.9000 0.6500
175.1000 0.9000 0.6500
199.5000 10.9000 0.6500
166.7000 12.5000 0.6500
132.3000 12.5000 0.6500
97.9000 12.5000 0.6500
63.5000 12.5000 0.6500
29.1000 12.5000 0.6500
0.9000 6.3000 0.6500
31.5000 1.7000 0.6500
65.9000 1.7000 0.6500
100.3000 1.7000 0.6500
134.7000 1.7000 0.6500
169.1000 1.7000 0.6500
198.7000 6.5000 0.6500
169.5000 11.7000 0.6500
135.1000 11.7000 0.6500
100.7000 11.7000 0.6500
66.3000 11.7000 0.6500
31.9000 11.7000 0.6500
1.7000 7.5000 0.6500
31.9000 2.5000 0.6500
66.3000 2.5000 0.6500
100.7000 2.5000 0.6500
135.1000 2.5000 0.6500
169.5000 2.5000 0.6500
197.9000 8.5000 0.6500
165.9000 10.9000 0.6500
131.5000 10.9000 0.6500
97.1000 10.9000 0.6500
62.7000 10.9000 0.6500
28.3000 10.9000 0.6500
4.3000 3.3000 0.6500
38.7000 3.3000 0.6500
73.1000 3.3000 0.6500
107.5000 3.3000 0.6500
141.9000 3.3000 0.6500
176.3000 3.3000 0.6500
190.3000 10.1000 0.6500
155.9000 10.1000 0.6500
121.5000 10.1000 0.6500
87.1000 10.1000 0.6500
52.7000 10.1000 0.6500
18.3000 10.1000 0.6500
17.5000 4.1000 0.6500
51.9000 4.1000 0.6500
86.3000 4.1000 0.6500
120.7000 4.1000 0.6500
155.1000 4.1000 0.6500
189.5000 4.1000 0.6500
173.9000 9.3000 0.6500
139.5000 9.3000 0.6500
105.1000 9.3000 0.6500
70.7000 9.3000 0.6500
36.3000 9.3000 0.6500
4.1000 7.1000 0.6500
37.1000 4.9000 0.6500
71.5000 4.9000 0.6500
105.9000 4.9000 0.6500
140.3000 4.9000 0.6500
174.7000 4.9000 0.6500
185.5000 8.5000 0.6500
151.1000 8.5000 0.6500
116.7000 8.5000 0.6500
82.3000 8.5000 0.6500
47.9000 8.5000 0.6500
13.5000 8.5000 0.6500
28.7000 5.7000 0.6500
63.1000 5.7000 0.6500
97.5000 5.7000 0.6500
131.9000 5.7000 0.6500
166.3000 5.7000 0.6500
190.7000 7.7000 0.6500
156.3000 7.7000 0.6500
121.9000 7.7000 0.6500
87.5000 7.7000 0.6500
53.1000 7.7000 0.6500
18.7000 7.7000 0.6500
26.7000 6.5000 0.6500
61.1000 6.5000 0.6500
95.5000 6.5000 0.6500
129.9000 6.5000 0.6500
164.3000 6.5000 0.6500
189.5000 6.9000 0.6500
155.1000 6.9000 0.6500
120.7000 6.9000 0.6500
86.3000 6.9000 0.6500
51.9000 6.9000 0.6500
17.5000 6.9000 0.6500
29.9000 7.3000 0.6500
64.3000 7.3000 0.6500
98.7000 7.3000 0.6500
133.1000 7.3000 0.6500
167.5000 7.3000 0.6500
187.9000 6.1000 0.6500
153.5000 6.1000 0.6500
119.1000 6.1000 0.6500
84.7000 6.1000 0.6500
50.3000 6.1000 0.6500
15.9000 6.1000 0.6500
27.9000 8.1000 0.6500
62.3000 8.1000 0.6500
96.7000 8.1000 0.6500
131.1000 8.1000 0.6500
165.5000 8.1000 0.6500
193.1000 5.3000 0.6500
158.7000 5.3000 0.6500
124.3000 5.3000 0.6500
89.9000 5.3000 0.6500
55.5000 5.3000 0.6500
21.1000 5.3000 0.6500
19.5000 8.9000 0.6500
53.9000 8.9000 0.6500
88.3000 8.9000 0.6500
122.7000 8.9000 0.6500
157.1000 8.9000 0.6500
191.5000 8.9000 0.6500
170.3000 4.5000 0.6500
135.9000 4.5000 0.6500
101.5000 4.5000 0.6500
67.1000 4.5000 0.6500
32.7000 4.5000 0.6500
4.7000 9.7000 0.6500
39.1000 9.7000 0.6500
73.5000 9.7000 0.6500
107.9000 9.7000 0.6500
142.3000 9.7000 0.6500
176.7000 9.7000 0.6500
188.3000 3.7000 0.6500
153.9000 3.7000 0.6500
119.5000 3.7000 0.6500
85.1000 3.7000 0.6500
50.7000 3.7000 0.6500
16.3000 3.7000 0.6500
17.9000 10.5000 0.6500
52.3000 10.5000 0.6500
86.7000 10.5000 0.6500
121.1000 10.5000 0.6500
155.5000 10.5000 0.6500
189.9000 10.5000 0.6500
178.3000 2.9000 0.6500
143.9000 2.9000 0.6500
109.5000 2.9000 0.6500
75.1000 2.9000 0.6500
40.7000 2.9000 0.6500
6.3000 2.9000 0.6500
24.7000 11.3000 0.6500
59.1000 11.3000 0.6500
93.5000 11.3000 0.6500
127.9000 11.3000 0.6500
162.3000 11.3000 0.6500
196.7000 11.3000 0.6500
174.7000 2.1000 0.6500
140.3000 2.1000 0.6500
105.9000 2.1000 0.6500
71.5000 2.1000 0.6500
37.1000 2.1000 0.6500
2.7000 2.1000 0.6500
25.1000 12.1000 0.6500
59.5000 12.1000 0.6500
93.9000 12.1000 0.6500
128.3000 12.1000 0.6500
162.7000 12.1000 0.6500
197.1000 12.1000 0.6500
177.5000 1.3000 0.6500
143.1000 1.3000 0.6500
108.7000 1.3000 0.6500
74.3000 1.3000 0.6500
39.9000 1.3000 0.6500
5.5000 1.3000 0.6500
18.9000 12.9000 0.6500
53.3000 12.9000 0.6500
87.7000 12.9000 0.6500
122.1000 12.9000 0.6500
156.5000 12.9000 0.6500
190.9000 12.9000 0.6500
186.6657 0.5000 0.6500
152.2657 0.5000 0.6500
117.8657 0.5000 0.6500
83.4657 0.5000 0.6500
49.0657 0.5000 0.6500
14.6657 0.5000 0.6500
20.6657 0.5000 0.8000
55.0657 0.5000 0.8000
89.4657 0.5000 0.8000
123.8657 0.5000 0.8000
158.2657 0.5000 0.8000
192.6657 0.5000 0.8000
184.9000 12.9000 0.8000
150.5000 12.9000 0.8000
116.1000 12.9000 0.8000
81.7000 12.9000 0.8000
47.3000 12.9000 0.8000
12.9000 12.9000 0.8000
12.1000 1.5000 0.8000
46.5000 1.5000 0.8000
80.9000 1.5000 0.8000
115.3000 1.5000 0.8000
149.7000 1.5000 0.8000
184.1000 1.5000 0.8000
189.7000 11.9000 0.8000
155.3000 11.9000 0.8000
120.9000 11.9000 0.8000
86.5000 11.9000 0.8000
52.1000 11.9000 0.8000
17.7000 11.9000 0.8000
11.1000 2.5000 0.8000
45.5000 2.5000 0.8000
79.9000 2.5000 0.8000
114.3000 2.5000 0.8000
148.7000 2.5000 0.8000
183.1000 2.5000 0.8000
186.7000 10.9000 0.8000
152.3000 10.9000 0.8000
117.9000 10.9000 0.8000
83.5000 10.9000 0.8000
49.1000 10.9000 0.8000
14.7000 10.9000 0.8000
18.1000 3.5000 0.8000
52.5000 3.5000 0.8000
86.9000 3.5000 0.8000
121.3000 3.5000 0.8000
155.7000 3.5000 0.8000
190.1000 3.5000 0.8000
175.7000 9.9000 0.8000
141.3000 9.9000 0.8000
106.9000 9.9000 0.8000
72.5000 9.9000 0.8000
38.1000 9.9000 0.8000
3.7667 9.8333 0.8000
33.1000 4.5000 0.8000
67.5000 4.5000 0.8000
101.9000 4.5000 0.8000
136.3000 4.5000 0.8000
170.7000 4.5000 0.8000
191.1000 8.9000 0.8000
156.7000 8.9000 0.8000
122.3000 8.9000 0.8000
87.9000 8.9000 0.8000
53.5000 8.9000 0.8000
19.1000 8.9000 0.8000
21.7000 5.5000 0.8000
56.1000 5.5000 0.8000
90.5000 5.5000 0.8000
124.9000 5.5000 0.8000
159.3000 5.5000 0.8000
193.7000 5.5000 0.8000
164.1000 7.9000 0.8000
129.7000 7.9000 0.8000
95.3000 7.9000 0.8000
60.9000 7.9000 0.8000
26.5000 7.9000 0.8000
18.3000 6.5000 0.8000
52.7000 6.5000 0.8000
87.1000 6.5000 0.8000
121.5000 6.5000 0.8000
155.9000 6.5000 0.8000
190.3000 6.5000 0.8000
163.5000 6.9000 0.8000
129.1000 6.9000 0.8000
94.7000 6.9000 0.8000
60.3000 6.9000 0.8000
25.9000 6.9000 0.8000
21.2000 7.4000 0.8000
55.6000 7.4000 0.8000
90.0000 7.4000 0.8000
124.4000 7.4000 0.8000
158.8000 7.4000 0.8000
193.2000 7.4000 0.8000
162.6000 6.0000 0.8000
128.2000 6.0000 0.8000
93.8000 6.0000 0.8000
59.4000 6.0000 0.8000
25.0000 6.0000 0.8000
17.8000 8.4000 0.8000
52.2000 8.4000 0.8000
86.6000 8.4000 0.8000
121.0000 8.4000 0.8000
155.4000 8.4000 0.8000
189.8000 8.4000 0.8000
170.0000 5.0000 0.8000
135.6000 5.0000 0.8000
101.2000 5.0000 0.8000
66.8000 5.0000 0.8000
32.4000 5.0000 0.8000
6.4000 9.4000 0.8000
40.8000 9.4000 0.8000
75.2000 9.4000 0.8000
109.6000 9.4000 0.8000
144.0000 9.4000 0.8000
178.4000 9.4000 0.8000
185.4000 4.0000 0.8000
151.0000 4.0000 0.8000
116.6000 4.0000 0.8000
82.2000 4.0000 0.8000
47.8000 4.0000 0.8000
13.4000 4.0000 0.8000
21.4000 10.4000 0.8000
55.8000 10.4000 0.8000
90.2000 10.4000 0.8000
124.6000 10.4000 0.8000
159.0000 10.4000 0.8000
193.4000 10.4000 0.8000
174.4000 3.0000 0.8000
140.0000 3.0000 0.8000
105.6000 3.0000 0.8000
71.2000 3.0000 0.8000
36.8000 3.0000 0.8000
2.0000 3.4000 0.8000
28.4000 11.4000 0.8000
62.8000 11.4000 0.8000
97.2000 11.4000 0.8000
131.6000 11.4000 0.8000
166.0000 11.4000 0.8000
198.4000 9.4000 0.8000
171.4000 2.0000 0.8000
137.0000 2.0000 0.8000
102.6000 2.0000 0.8000
68.2000 2.0000 0.8000
33.8000 2.0000 0.8000
1.0000 4.4000 0.8000
27.4000 12.4000 0.8000
61.8000 12.4000 0.8000
96.2000 12.4000 0.8000
130.6000 12.4000 0.8000
165.0000 12.4000 0.8000
199.2667 12.2667 0.8000
176.4000 1.0000 0.8000
142.0000 1.0000 0.8000
107.6000 1.0000 0.8000
73.2000 1.0000 0.8000
38.8000 1.0000 0.8000
4.4000 1.0000 0.8000
30.3000 0.9000 0.9500
64.7000 0.9000 0.9500
99.1000 0.9000 0.9500
133.5000 0.9000 0.9500
167.9000 0.9000 0.9500
199.5000 3.7000 0.9500
173.9000 12.5000 0.9500
139.5000 12.5000 0.9500
105.1000 12.5000 0.9500
70.7000 12.5000 0.9500
36.3000 12.5000 0.9500
1.9000 12.5000 0.9500
24.3000 1.7000 0.9500
58.7000 1.7000 0.9500
93.1000 1.7000 0.9500
127.5000 1.7000 0.9500
161.9000 1.7000 0.9500
196.3000 1.7000 0.9500
176.7000 11.7000 0.9500
142.3000 11.7000 0.9500
107.9000 11.7000 0.9500
73.5000 11.7000 0.9500
39.1000 11.7000 0.9500
4.7000 11.7000 0.9500
24.7000 2.5000 0.9500
59.1000 2.5000 0.9500
93.5000 2.5000 0.9500
127.9000 2.5000 0.9500
162.3000 2.5000 0.9500
196.7000 2.5000 0.9500
173.1000 10.9000 0.9500
138.7000 10.9000 0.9500
104.3000 10.9000 0.9500
69.9000 10.9000 0.9500
35.5000 10.9000 0.9500
2.5000 9.5000 0.9500
31.5000 3.3000 0.9500
65.9000 3.3000 0.9500
100.3000 3.3000 0.9500
134.7000 3.3000 0.9500
169.1000 3.3000 0.9500
197.1000 9.7000 0.9500
163.1000 10.1000 0.9500
128.7000 10.1000 0.9500
94.3000 10.1000 0.9500
59.9000 10.1000 0.9500
25.5000 10.1000 0.9500
10.3000 4.1000 0.9500
44.7000 4.1000 0.9500
79.1000 4.1000 0.9500
113.5000 4.1000 0.9500
147.9000 4.1000 0.9500
182.3000 4.1000 0.9500
181.1000 9.3000 0.9500
146.7000 9.3000 0.9500
112.3000 9.3000 0.9500
77.9000 9.3000 0.9500
43.5000 9.3000 0.9500
9.1000 9.3000 0.9500
29.9000 4.9000 0.9500
64.3000 4.9000 0.9500
98.7000 4.9000 0.9500
133.1000 4.9000 0.9500
167.5000 4.9000 0.9500
192.7000 8.5000 0.9500
158.3000 8.5000 0.9500
123.9000 8.5000 0.9500
89.5000 8.5000 0.9500
55.1000 8.5000 0.9500
20.7000 8.5000 0.9500
21.5000 5.7000 0.9500
55.9000 5.7000 0.9500
90.3000 5.7000 0.9500
124.7000 5.7000 0.9500
159.1000 5.7000 0.9500
193.5000 5.7000 0.9500
163.5000 7.7000 0.9500
129.1000 7.7000 0.9500
94.7000 7.7000 0.9500
60.3000 7.7000 0.9500
25.9000 7.7000 0.9500
19.5000 6.5000 0.9500
53.9000 6.5000 0.9500
88.3000 6.5000 0.9500
122.7000 6.5000 0.9500
157.1000 6.5000 0.9500
191.5000 6.5000 0.9500
162.3000 6.9000 0.9500
127.9000 6.9000 0.9500
93.5000 6.9000 0.9500
59.1000 6.9000 0.9500
24.7000 6.9000 0.9500
22.7000 7.3000 0.9500
57.1000 7.3000 0.9500
91.5000 7.3000 0.9500
125.9000 7.3000 0.9500
160.3000 7.3000 0.9500
194.3000 6.9000 0.9500
160.7000 6.1000 0.9500
126.3000 6.1000 0.9500
91.9000 6.1000 0.9500
57.5000 6.1000 0.9500
23.1000 6.1000 0.9500
20.7000 8.1000 0.9500
55.1000 8.1000 0.9500
89.5000 8.1000 0.9500
123.9000 8.1000 0.9500
158.3000 8.1000 0.9500
192.7000 8.1000 0.9500
165.9000 5.3000 0.9500
131.5000 5.3000 0.9500
97.1000 5.3000 0.9500
62.7000 5.3000 0.9500
28.3000 5.3000 0.9500
12.3000 8.9000 0.9500
46.7000 8.9000 0.9500
81.1000 8.9000 0.9500
115.5000 8.9000 0.9500
149.9000 8.9000 0.9500
184.3000 8.9000 0.9500
177.5000 4.5000 0.9500
143.1000 4.5000 0.9500
108.7000 4.5000 0.9500
74.3000 4.5000 0.9500
39.9000 4.5000 0.9500
5.5000 4.5000 0.9500
31.9000 9.7000 0.9500
66.3000 9.7000 0.9500
100.7000 9.7000 0.9500
135.1000 9.7000 0.9500
169.5000 9.7000 0.9500
195.5000 3.7000 0.9500
161.1000 3.7000 0.9500
126.7000 3.7000 0.9500
92.3000 3.7000 0.9500
57.9000 3.7000 0.9500
23.5000 3.7000 0.9500
10.7000 10.5000 0.9500
45.1000 10.5000 0.9500
79.5000 10.5000 0.9500
113.9000 10.5000 0.9500
148.3000 10.5000 0.9500
182.7000 10.5000 0.9500
185.5000 2.9000 0.9500
151.1000 2.9000 0.9500
116.7000 2.9000 0.9500
82.3000 2.9000 0.9500
47.9000 2.9000 0.9500
13.5000 2.9000 0.9500
17.5000 11.3000 0.9500
51.9000 11.3000 0.9500
86.3000 11.3000 0.9500
120.7000 11.3000 0.9500
155.1000 11.3000 0.9500
189.5000 11.3000 0.9500
181.9000 2.1000 0.9500
147.5000 2.1000 0.9500
113.1000 2.1000 0.9500
78.7000 2.1000 0.9500
44.3000 2.1000 0.9500
9.9000 2.1000 0.9500
17.9000 12.1000 0.9500
52.3000 12.1000 0.9500
86.7000 12.1000 0.9500
121.1000 12.1000 0.9500
155.5000 12.1000 0.9500
189.9000 12.1000 0.9500
184.7000 1.3000 0.9500
150.3000 1.3000 0.9500
115.9000 1.3000 0.9500
81.5000 1.3000 0.9500
47.1000 1.3000 0.9500
12.7000 1.3000 0.9500
11.7000 12.9000 0.9500
46.1000 12.9000 0.9500
80.5000 12.9000 0.9500
114.9000 12.9000 0.9500
149.3000 12.9000 0.9500
183.7000 12.9000 0.9500
193.8657 0.5000 0.9500
159.4657 0.5000 0.9500
125.0657 0.5000 0.9500
90.6657 0.5000 0.9500
56.2657 0.5000 0.9500
21.8657 0.5000 0.9500
13.4657 0.5000 1.1000
47.8657 0.5000 1.1000
82.2657 0.5000 1.1000
116.6657 0.5000 1.1000
151.0657 0.5000 1.1000
185.4657 0.5000 1.1000
192.1000 12.9000 1.1000
157.7000 12.9000 1.1000
123.3000 12.9000 1.1000
88.9000 12.9000 1.1000
54.5000 12.9000 1.1000
20.1000 12.9000 1.1000
4.9000 1.5000 1.1000
39.3000 1.5000 1.1000
73.7000 1.5000 1.1000
108.1000 1.5000 1.1000
142.5000 1.5000 1.1000
176.9000 1.5000 1.1000
196.9000 11.9000 1.1000
162.5000 11.9000 1.1000
128.1000 11.9000 1.1000
93.7000 11.9000 1.1000
59.3000 11.9000 1.1000
24.9000 11.9000 1.1000
3.9000 2.5000 1.1000
38.3000 2.5000 1.1000
72.7000 2.5000 1.1000
107.1000 2.5000 1.1000
141.5000 2.5000 1.1000
175.9000 2.5000 1.1000
193.9000 10.9000 1.1000
159.5000 10.9000 1.1000
125.1000 10.9000 1.1000
90.7000 10.9000 1.1000
56.3000 10.9000 1.1000
21.9000 10.9000 1.1000
10.9000 3.5000 1.1000
45.3000 3.5000 1.1000
79.7000 3.5000 1.1000
114.1000 3.5000 1.1000
148.5000 3.5000 1.1000
182.9000 3.5000 1.1000
182.9000 9.9000 1.1000
148.5000 9.9000 1.1000
114.1000 9.9000 1.1000
79.7000 9.9000 1.1000
45.3000 9.9000 1.1000
10.9000 9.9000 1.1000
25.9000 4.5000 1.1000
60.3000 4.5000 1.1000
94.7000 4.5000 1.1000
129.1000 4.5000 1.1000
163.5000 4.5000 1.1000
195.9000 6.5000 1.1000
163.9000 8.9000 1.1000
129.5000 8.9000 1.1000
95.1000 8.9000 1.1000
60.7000 8.9000 1.1000
26.3000 8.9000 1.1000
14.5000 5.5000 1.1000
48.9000 5.5000 1.1000
83.3000 5.5000 1.1000
117.7000 5.5000 1.1000
152.1000 5.5000 1.1000
186.5000 5.5000 1.1000
171.3000 7.9000 1.1000
136.9000 7.9000 1.1000
102.5000 7.9000 1.1000
68.1000 7.9000 1.1000
33.7000 7.9000 1.1000
11.1000 6.5000 1.1000
45.5000 6.5000 1.1000
79.9000 6.5000 1.1000
114.3000 6.5000 1.1000
148.7000 6.5000 1.1000
183.1000 6.5000 1.1000
170.7000 6.9000 1.1000
136.3000 6.9000 1.1000
101.9000 6.9000 1.1000
67.5000 6.9000 1.1000
33.1000 6.9000 1.1000
14.0000 7.4000 1.1000
48.4000 7.4000 1.1000
82.8000 7.4000 1.1000
117.2000 7.4000 1.1000
151.6000 7.4000 1.1000
186.0000 7.4000 1.1000
169.8000 6.0000 1.1000
135.4000 6.0000 1.1000
101.0000 6.0000 1.1000
66.6000 6.0000 1.1000
32.2000 6.0000 1.1000
10.6000 8.4000 1.1000
45.0000 8.4000 1.1000
79.4000 8.4000 1.1000
113.8000 8.4000 1.1000
148.2000 8.4000 1.1000
182.6000 8.4000 1.1000
177.2000 5.0000 1.1000
142.8000 5.0000 1.1000
108.4000 5.0000 1.1000
74.0000 5.0000 1.1000
39.6000 5.0000 1.1000
4.9333 5.0000 1.1000
33.6000 9.4000 1.1000
68.0000 9.4000 1.1000
102.4000 9.4000 1.1000
136.8000 9.4000 1.1000
171.2000 9.4000 1.1000
192.6000 4.0000 1.1000
158.2000 4.0000 1.1000
123.8000 4.0000 1.1000
89.4000 4.0000 1.1000
55.0000 4.0000 1.1000
20.6000 4.0000 1.1000
14.2000 10.4000 1.1000
48.6000 10.4000 1.1000
83.0000 10.4000 1.1000
117.4000 10.4000 1.1000
151.8000 10.4000 1.1000
186.2000 10.4000 1.1000
181.6000 3.0000 1.1000
147.2000 3.0000 1.1000
112.8000 3.0000 1.1000
78.4000 3.0000 1.1000
44.0000 3.0000 1.1000
9.6000 3.0000 1.1000
21.2000 11.4000 1.1000
55.6000 11.4000 1.1000
90.0000 11.4000 1.1000
124.4000 11.4000 1.1000
158.8000 11.4000 1.1000
193.2000 11.4000 1.1000
178.6000 2.0000 1.1000
144.2000 2.0000 1.1000
109.8000 2.0000 1.1000
75.4000 2.0000 1.1000
41.0000 2.0000 1.1000
6.6000 2.0000 1.1000
20.2000 12.4000 1.1000
54.6000 12.4000 1.1000
89.0000 12.4000 1.1000
123.4000 12.4000 1.1000
157.8000 12.4000 1.1000
192.2000 12.4000 1.1000
183.6000 1.0000 1.1000
149.2000 1.0000 1.1000
114.8000 1.0000 1.1000
80.4000 1.0000 1.1000
46.0000 1.0000 1.1000
11.6000 1.0000 1.1000
23.1000 0.9000 1.2500
57.5000 0.9000 1.2500
91.9000 0.9000 1.2500
126.3000 0.9000 1.2500
160.7000 0.9000 1.2500
195.1000 0.9000 1.2500
181.1000 12.5000 1.2500
146.7000 12.5000 1.2500
112.3000 12.5000 1.2500
77.9000 12.5000 1.2500
43.5000 12.5000 1.2500
9.1000 12.5000 1.2500
17.1000 1.7000 1.2500
51.5000 1.7000 1.2500
85.9000 1.7000 1.2500
120.3000 1.7000 1.2500
154.7000 1.7000 1.2500
189.1000 1.7000 1.2500
183.9000 11.7000 1.2500
149.5000 11.7000 1.2500
115.1000 11.7000 1.2500
80.7000 11.7000 1.2500
46.3000 11.7000 1.2500
11.9000 11.7000 1.2500
17.5000 2.5000 1.2500
51.9000 2.5000 1.2500
86.3000 2.5000 1.2500
120.7000 2.5000 1.2500
155.1000 2.5000 1.2500
189.5000 2.5000 1.2500
180.3000 10.9000 1.2500
145.9000 10.9000 1.2500
111.5000 10.9000 1.2500
77.1000 10.9000 1.2500
42.7000 10.9000 1.2500
8.3000 10.9000 1.2500
24.3000 3.3000 1.2500
58.7000 3.3000 1.2500
93.1000 3.3000 1.2500
127.5000 3.3000 1.2500
161.9000 3.3000 1.2500
196.3000 3.3000 1.2500
170.3000 10.1000 1.2500
135.9000 10.1000 1.2500
101.5000 10.1000 1.2500
67.1000 10.1000 1.2500
32.7000 10.1000 1.2500
3.3000 5.1000 1.2500
37.5000 4.1000 1.2500
71.9000 4.1000 1.2500
106.3000 4.1000 1.2500
140.7000 4.1000 1.2500
175.1000 4.1000 1.2500
188.3000 9.3000 1.2500
153.9000 9.3000 1.2500
119.5000 9.3000 1.2500
85.1000 9.3000 1.2500
50.7000 9.3000 1.2500
16.3000 9.3000 1.2500
22.7000 4.9000 1.2500
57.1000 4.9000 1.2500
91.5000 4.9000 1.2500
125.9000 4.9000 1.2500
160.3000 4.9000 1.2500
194.7000 4.9000 1.2500
165.5000 8.5000 1.2500
131.1000 8.5000 1.2500
96.7000 8.5000 1.2500
62.3000 8.5000 1.2500
27.9000 8.5000 1.2500
14.3000 5.7000 1.2500
48.7000 5.7000 1.2500
83.1000 5.7000 1.2500
117.5000 5.7000 1.2500
151.9000 5.7000 1.2500
186.3000 5.7000 1.2500
170.7000 7.7000 1.2500
136.3000 7.7000 1.2500
101.9000 7.7000 1.2500
67.5000 7.7000 1.2500
33.1000 7.7000 1.2500
12.3000 6.5000 1.2500
46.7000 6.5000 1.2500
81.1000 6.5000 1.2500
115.5000 6.5000 1.2500
149.9000 6.5000 1.2500
184.3000 6.5000 1.2500
169.5000 6.9000 1.2500
135.1000 6.9000 1.2500
100.7000 6.9000 1.2500
66.3000 6.9000 1.2500
31.9000 6.9000 1.2500
15.5000 7.3000 1.2500
49.9000 7.3000 1.2500
84.3000 7.3000 1.2500
118.7000 7.3000 1.2500
153.1000 7.3000 1.2500
187.5000 7.3000 1.2500
167.9000 6.1000 1.2500
133.5000 6.1000 1.2500
99.1000 6.1000 1.2500
64.7000 6.1000 1.2500
30.3000 6.1000 1.2500
13.5000 8.1000 1.2500
47.9000 8.1000 1.2500
82.3000 8.1000 1.2500
116.7000 8.1000 1.2500
151.1000 8.1000 1.2500
185.5000 8.1000 1.2500
173.1000 5.3000 1.2500
138.7000 5.3000 1.2500
104.3000 5.3000 1.2500
69.9000 5.3000 1.2500
35.5000 5.3000 1.2500
5.1000 8.9000 1.2500
39.5000 8.9000 1.2500
73.9000 8.9000 1.2500
108.3000 8.9000 1.2500
142.7000 8.9000 1.2500
177.1000 8.9000 1.2500
184.7000 4.5000 1.2500
150.3000 4.5000 1.2500
115.9000 4.5000 1.2500
81.5000 4.5000 1.2500
47.1000 4.5000 1.2500
12.7000 4.5000 1.2500
24.7000 9.7000 1.2500
59.1000 9.7000 1.2500
93.5000 9.7000 1.2500
127.9000 9.7000 1.2500
162.3000 9.7000 1.2500
196.5667 9.5667 1.2500
168.3000 3.7000 1.2500
133.9000 3.7000 1.2500
99.5000 3.7000 1.2500
65.1000 3.7000 1.2500
30.7000 3.7000 1.2500
3.5000 10.5000 1.2500
37.9000 10.5000 1.2500
72.3000 10.5000 1.2500
106.7000 10.5000 1.2500
141.1000 10.5000 1.2500
175.5000 10.5000 1.2500
192.7000 2.9000 1.2500
158.3000 2.9000 1.2500
123.9000 2.9000 1.2500
89.5000 2.9000 1.2500
55.1000 2.9000 1.2500
20.7000 2.9000 1.2500
10.3000 11.3000 1.2500
44.7000 11.3000 1.2500
79.1000 11.3000 1.2500
113.5000 11.3000 1.2500
147.9000 11.3000 1.2500
182.3000 11.3000 1.2500
189.1000 2.1000 1.2500
154.7000 2.1000 1.2500
120.3000 2.1000 1.2500
85.9000 2.1000 1.2500
51.5000 2.1000 1.2500
17.1000 2.1000 1.2500
10.7000 12.1000 1.2500
45.1000 12.1000 1.2500
79.5000 12.1000 1.2500
113.9000 12.1000 1.2500
148.3000 12.1000 1.2500
182.7000 12.1000 1.2500
191.9000 1.3000 1.2500
157.5000 1.3000 1.2500
123.1000 1.3000 1.2500
88.7000 1.3000 1.2500
54.3000 1.3000 1.2500
19.9000 1.3000 1.2500
4.5000 12.9000 1.2500
38.9000 12.9000 1.2500
73.3000 12.9000 1.2500
107.7000 12.9000 1.2500
142.1000 12.9000 1.2500
176.5000 12.9000 1.2500
199.9000 1.7828 1.2500
166.6657 0.5000 1.2500
132.2657 0.5000 1.2500
97.8657 0.5000 1.2500
63.4657 0.5000 1.2500
29.0657 0.5000 1.2500
6.2657 0.5000 1.4000
40.6657 0.5000 1.4000
75.0657 0.5000 1.4000
109.4657 0.5000 1.4000
143.8657 0.5000 1.4000
178.2657 0.5000 1.4000
199.3000 12.9000 1.4000
164.9000 12.9000 1.4000
130.5000 12.9000 1.4000
96.1000 12.9000 1.4000
61.7000 12.9000 1.4000
27.3000 12.9000 1.4000
0.5000 5.3000 1.4000
32.1000 1.5000 1.4000
66.5000 1.5000 1.4000
100.9000 1.5000 1.4000
135.3000 1.5000 1.4000
169.7000 1.5000 1.4000
198.9000 6.7000 1.4000
169.7000 11.9000 1.4000
135.3000 11.9000 1.4000
100.9000 11.9000 1.4000
66.5000 11.9000 1.4000
32.1000 11.9000 1.4000
1.5000 8.1000 1.4000
31.1000 2.5000 1.4000
65.5000 2.5000 1.4000
99.9000 2.5000 1.4000
134.3000 2.5000 1.4000
168.7000 2.5000 1.4000
197.9000 7.7000 1.4000
166.7000 10.9000 1.4000
132.3000 10.9000 1.4000
97.9000 10.9000 1.4000
63.5000 10.9000 1.4000
29.1000 10.9000 1.4000
3.4333 3.5000 1.4000
38.1000 3.5000 1.4000
72.5000 3.5000 1.4000
106.9000 3.5000 1.4000
141.3000 3.5000 1.4000
175.7000 3.5000 1.4000
190.1000 9.9000 1.4000
155.7000 9.9000 1.4000
121.3000 9.9000 1.4000
86.9000 9.9000 1.4000
52.5000 9.9000 1.4000
18.1000 9.9000 1.4000
18.7000 4.5000 1.4000
53.1000 4.5000 1.4000
87.5000 4.5000 1.4000
121.9000 4.5000 1.4000
156.3000 4.5000 1.4000
190.7000 4.5000 1.4000
171.1000 8.9000 1.4000
136.7000 8.9000 1.4000
102.3000 8.9000 1.4000
67.9000 8.9000 1.4000
33.5000 8.9000 1.4000
7.3000 5.5000 1.4000
41.7000 5.5000 1.4000
76.1000 5.5000 1.4000
110.5000 5.5000 1.4000
144.9000 5.5000 1.4000
179.3000 5.5000 1.4000
178.5000 7.9000 1.4000
144.1000 7.9000 1.4000
109.7000 7.9000 1.4000
75.3000 7.9000 1.4000
40.9000 7.9000 1.4000
6.5000 7.9000 1.4000
38.3000 6.5000 1.4000
72.7000 6.5000 1.4000
107.1000 6.5000 1.4000
141.5000 6.5000 1.4000
175.9000 6.5000 1.4000
177.9000 6.9000 1.4000
143.5000 6.9000 1.4000
109.1000 6.9000 1.4000
74.7000 6.9000 1.4000
40.3000 6.9000 1.4000
6.8000 7.4000 1.4000
41.2000 7.4000 1.4000
75.6000 7.4000 1.4000
110.0000 7.4000 1.4000
144.4000 7.4000 1.4000
178.8000 7.4000 1.4000
177.0000 6.0000 1.4000
142.6000 6.0000 1.4000
108.2000 6.0000 1.4000
73.8000 6.0000 1.4000
39.4000 6.0000 1.4000
5.0000 6.8000 1.4000
37.8000 8.4000 1.4000
72.2000 8.4000 1.4000
106.6000 8.4000 1.4000
141.0000 8.4000 1.4000
175.4000 8.4000 1.4000
184.4000 5.0000 1.4000
150.0000 5.0000 1.4000
115.6000 5.0000 1.4000
81.2000 5.0000 1.4000
46.8000 5.0000 1.4000
12.4000 5.0000 1.4000
26.4000 9.4000 1.4000
60.8000 9.4000 1.4000
95.2000 9.4000 1.4000
129.6000 9.4000 1.4000
164.0000 9.4000 1.4000
196.4000 7.4000 1.4000
165.4000 4.0000 1.4000
131.0000 4.0000 1.4000
96.6000 4.0000 1.4000
62.2000 4.0000 1.4000
27.8000 4.0000 1.4000
7.0000 10.4000 1.4000
41.4000 10.4000 1.4000
75.8000 10.4000 1.4000
110.2000 10.4000 1.4000
144.6000 10.4000 1.4000
179.0000 10.4000 1.4000
188.8000 3.0000 1.4000
154.4000 3.0000 1.4000
120.0000 3.0000 1.4000
85.6000 3.0000 1.4000
51.2000 3.0000 1.4000
16.8000 3.0000 1.4000
14.0000 11.4000 1.4000
48.4000 11.4000 1.4000
82.8000 11.4000 1.4000
117.2000 11.4000 1.4000
151.6000 11.4000 1.4000
186.0000 11.4000 1.4000
185.8000 2.0000 1.4000
151.4000 2.0000 1.4000
117.0000 2.0000 1.4000
82.6000 2.0000 1.4000
48.2000 2.0000 1.4000
13.8000 2.0000 1.4000
13.0000 12.4000 1.4000
47.4000 12.4000 1.4000
81.8000 12.4000 1.4000
116.2000 12.4000 1.4000
150.6000 12.4000 1.4000
185.0000 12.4000 1.4000
190.8000 1.0000 1.4000
156.4000 1.0000 1.4000
122.0000 1.0000 1.4000
87.6000 1.0000 1.4000
53.2000 1.0000 1.4000
18.8000 1.0000 1.4000
0.5000 0.9000 1.4000