File: experimental_data/tensile_specimen_test_data/TXT/(4)RD2001315-0.2,0.13.txt
0.6657 0.5000 0.2000
43.0657 0.5000 0.2000
85.4657 0.5000 0.2000
127.8657 0.5000 0.2000
170.2657 0.5000 0.2000
199.3000 12.9000 0.2000
156.9000 12.9000 0.2000
114.5000 12.9000 0.2000
72.1000 12.9000 0.2000
29.7000 12.9000 0.2000
3.3000 1.5000 0.2000
45.7000 1.5000 0.2000
88.1000 1.5000 0.2000
130.5000 1.5000 0.2000
172.9000 1.5000 0.2000
192.9000 11.9000 0.2000
150.5000 11.9000 0.2000
108.1000 11.9000 0.2000
65.7000 11.9000 0.2000
23.3000 11.9000 0.2000
13.5000 2.5000 0.2000
55.9000 2.5000 0.2000
98.3000 2.5000 0.2000
140.7000 2.5000 0.2000
183.1000 2.5000 0.2000
178.7000 10.9000 0.2000
136.3000 10.9000 0.2000
93.9000 10.9000 0.2000
51.5000 10.9000 0.2000
9.1000 10.9000 0.2000
31.7000 3.5000 0.2000
74.1000 3.5000 0.2000
116.5000 3.5000 0.2000
158.9000 3.5000 0.2000
196.9000 7.9000 0.2000
156.5000 9.9000 0.2000
114.1000 9.9000 0.2000
71.7000 9.9000 0.2000
29.3000 9.9000 0.2000
15.5000 4.5000 0.2000
57.9000 4.5000 0.2000
100.3000 4.5000 0.2000
142.7000 4.5000 0.2000
185.1000 4.5000 0.2000
168.7000 8.9000 0.2000
126.3000 8.9000 0.2000
83.9000 8.9000 0.2000
41.5000 8.9000 0.2000
7.3000 5.5000 0.2000
49.7000 5.5000 0.2000
92.1000 5.5000 0.2000
134.5000 5.5000 0.2000
176.9000 5.5000 0.2000
172.9000 7.9000 0.2000
130.5000 7.9000 0.2000
88.1000 7.9000 0.2000
45.7000 7.9000 0.2000
7.1000 6.5000 0.2000
49.5000 6.5000 0.2000
91.9000 6.5000 0.2000
134.3000 6.5000 0.2000
176.7000 6.5000 0.2000
169.1000 6.9000 0.2000
126.7000 6.9000 0.2000
84.3000 6.9000 0.2000
41.9000 6.9000 0.2000
13.2000 7.4000 0.2000
55.6000 7.4000 0.2000
98.0000 7.4000 0.2000
140.4000 7.4000 0.2000
182.8000 7.4000 0.2000
165.0000 6.0000 0.2000
122.6000 6.0000 0.2000
80.2000 6.0000 0.2000
37.8000 6.0000 0.2000
13.0000 8.4000 0.2000
55.4000 8.4000 0.2000
97.8000 8.4000 0.2000
140.2000 8.4000 0.2000
182.6000 8.4000 0.2000
169.2000 5.0000 0.2000
126.8000 5.0000 0.2000
84.4000 5.0000 0.2000
42.0000 5.0000 0.2000
4.8000 9.4000 0.2000
47.2000 9.4000 0.2000
89.6000 9.4000 0.2000
132.0000 9.4000 0.2000
174.4000 9.4000 0.2000
181.4000 4.0000 0.2000
139.0000 4.0000 0.2000
96.6000 4.0000 0.2000
54.2000 4.0000 0.2000
11.8000 4.0000 0.2000
31.0000 10.4000 0.2000
73.4000 10.4000 0.2000
115.8000 10.4000 0.2000
158.2000 10.4000 0.2000
197.4000 7.2000 0.2000
159.2000 3.0000 0.2000
116.8000 3.0000 0.2000
74.4000 3.0000 0.2000
32.0000 3.0000 0.2000
6.8000 11.4000 0.2000
49.2000 11.4000 0.2000
91.6000 11.4000 0.2000
134.0000 11.4000 0.2000
176.4000 11.4000 0.2000
187.4000 2.0000 0.2000
145.0000 2.0000 0.2000
102.6000 2.0000 0.2000
60.2000 2.0000 0.2000
17.8000 2.0000 0.2000
17.0000 12.4000 0.2000
59.4000 12.4000 0.2000
101.8000 12.4000 0.2000
144.2000 12.4000 0.2000
186.6000 12.4000 0.2000
181.2000 1.0000 0.2000
138.8000 1.0000 0.2000
96.4000 1.0000 0.2000
54.0000 1.0000 0.2000
11.6000 1.0000 0.2000
31.1000 0.9000 0.3300
73.5000 0.9000 0.3300
115.9000 0.9000 0.3300
158.3000 0.9000 0.3300
199.5000 2.1000 0.3300
167.5000 12.5000 0.3300
125.1000 12.5000 0.3300
82.7000 12.5000 0.3300
40.3000 12.5000 0.3300
0.9000 9.5000 0.3300
36.3000 1.7000 0.3300
78.7000 1.7000 0.3300
121.1000 1.7000 0.3300
163.5000 1.7000 0.3300
198.7000 8.9000 0.3300
159.1000 11.7000 0.3300
116.7000 11.7000 0.3300
74.3000 11.7000 0.3300
31.9000 11.7000 0.3300
5.5000 2.5000 0.3300
47.9000 2.5000 0.3300
90.3000 2.5000 0.3300
132.7000 2.5000 0.3300
175.1000 2.5000 0.3300
186.7000 10.9000 0.3300
144.3000 10.9000 0.3300
101.9000 10.9000 0.3300
59.5000 10.9000 0.3300
17.1000 10.9000 0.3300
23.5000 3.3000 0.3300
65.9000 3.3000 0.3300
108.3000 3.3000 0.3300
150.7000 3.3000 0.3300
193.1000 3.3000 0.3300
165.5000 10.1000 0.3300
123.1000 10.1000 0.3300
80.7000 10.1000 0.3300
38.3000 10.1000 0.3300
5.5000 4.1000 0.3300
47.9000 4.1000 0.3300
90.3000 4.1000 0.3300
132.7000 4.1000 0.3300
175.1000 4.1000 0.3300
180.3000 9.3000 0.3300
137.9000 9.3000 0.3300
95.5000 9.3000 0.3300
53.1000 9.3000 0.3300
10.7000 9.3000 0.3300
36.3000 4.9000 0.3300
78.7000 4.9000 0.3300
121.1000 4.9000 0.3300
163.5000 4.9000 0.3300
188.7000 8.5000 0.3300
146.3000 8.5000 0.3300
103.9000 8.5000 0.3300
61.5000 8.5000 0.3300
19.1000 8.5000 0.3300
31.1000 5.7000 0.3300
73.5000 5.7000 0.3300
115.9000 5.7000 0.3300
158.3000 5.7000 0.3300
190.7000 7.7000 0.3300
148.3000 7.7000 0.3300
105.9000 7.7000 0.3300
63.5000 7.7000 0.3300
21.1000 7.7000 0.3300
32.3000 6.5000 0.3300
74.7000 6.5000 0.3300
117.1000 6.5000 0.3300
159.5000 6.5000 0.3300
186.3000 6.9000 0.3300
143.9000 6.9000 0.3300
101.5000 6.9000 0.3300
59.1000 6.9000 0.3300
16.7000 6.9000 0.3300
38.7000 7.3000 0.3300
81.1000 7.3000 0.3300
123.5000 7.3000 0.3300
165.9000 7.3000 0.3300
181.5000 6.1000 0.3300
139.1000 6.1000 0.3300
96.7000 6.1000 0.3300
54.3000 6.1000 0.3300
11.9000 6.1000 0.3300
39.9000 8.1000 0.3300
82.3000 8.1000 0.3300
124.7000 8.1000 0.3300
167.1000 8.1000 0.3300
183.5000 5.3000 0.3300
141.1000 5.3000 0.3300
98.7000 5.3000 0.3300
56.3000 5.3000 0.3300
13.9000 5.3000 0.3300
34.7000 8.9000 0.3300
77.1000 8.9000 0.3300
119.5000 8.9000 0.3300
161.9000 8.9000 0.3300
191.9000 4.5000 0.3300
149.5000 4.5000 0.3300
107.1000 4.5000 0.3300
64.7000 4.5000 0.3300
22.3000 4.5000 0.3300
23.1000 9.7000 0.3300
65.5000 9.7000 0.3300
107.9000 9.7000 0.3300
150.3000 9.7000 0.3300
192.7000 9.7000 0.3300
164.3000 3.7000 0.3300
121.9000 3.7000 0.3300
79.5000 3.7000 0.3300
37.1000 3.7000 0.3300
5.1000 10.5000 0.3300
47.5000 10.5000 0.3300
89.9000 10.5000 0.3300
132.3000 10.5000 0.3300
174.7000 10.5000 0.3300
185.5000 2.9000 0.3300
143.1000 2.9000 0.3300
100.7000 2.9000 0.3300
58.3000 2.9000 0.3300
15.9000 2.9000 0.3300
23.1000 11.3000 0.3300
65.5000 11.3000 0.3300
107.9000 11.3000 0.3300
150.3000 11.3000 0.3300
192.7000 11.3000 0.3300
170.7000 2.1000 0.3300
128.3000 2.1000 0.3300
85.9000 2.1000 0.3300
43.5000 2.1000 0.3300
1.3000 3.1000 0.3300
34.7000 12.1000 0.3300
77.1000 12.1000 0.3300
119.5000 12.1000 0.3300
161.9000 12.1000 0.3300
199.1000 6.9000 0.3300
162.3000 1.3000 0.3300
119.9000 1.3000 0.3300
77.5000 1.3000 0.3300
35.1000 1.3000 0.3300
0.5000 9.7000 0.3300
39.7000 12.9000 0.3300
82.1000 12.9000 0.3300
124.5000 12.9000 0.3300
166.9000 12.9000 0.3300
199.9000 3.3828 0.3300
160.2657 0.5000 0.3300
117.8657 0.5000 0.3300
75.4657 0.5000 0.3300
33.0657 0.5000 0.3300
10.2657 0.5000 0.4600
52.6657 0.5000 0.4600
95.0657 0.5000 0.4600
137.4657 0.5000 0.4600
179.8657 0.5000 0.4600
189.7000 12.9000 0.4600
147.3000 12.9000 0.4600
104.9000 12.9000 0.4600
62.5000 12.9000 0.4600
20.1000 12.9000 0.4600
12.9000 1.5000 0.4600
55.3000 1.5000 0.4600
97.7000 1.5000 0.4600
140.1000 1.5000 0.4600
182.5000 1.5000 0.4600
183.3000 11.9000 0.4600
140.9000 11.9000 0.4600
98.5000 11.9000 0.4600
56.1000 11.9000 0.4600
13.7000 11.9000 0.4600
23.1000 2.5000 0.4600
65.5000 2.5000 0.4600
107.9000 2.5000 0.4600
150.3000 2.5000 0.4600
192.7000 2.5000 0.4600
169.1000 10.9000 0.4600
126.7000 10.9000 0.4600
84.3000 10.9000 0.4600
41.9000 10.9000 0.4600
2.5000 7.9000 0.4600
41.3000 3.5000 0.4600
83.7000 3.5000 0.4600
126.1000 3.5000 0.4600
168.5000 3.5000 0.4600
189.3000 9.9000 0.4600
146.9000 9.9000 0.4600
104.5000 9.9000 0.4600
62.1000 9.9000 0.4600
19.7000 9.9000 0.4600
25.1000 4.5000 0.4600
67.5000 4.5000 0.4600
109.9000 4.5000 0.4600
152.3000 4.5000 0.4600
194.7000 4.5000 0.4600
159.1000 8.9000 0.4600
116.7000 8.9000 0.4600
74.3000 8.9000 0.4600
31.9000 8.9000 0.4600
16.9000 5.5000 0.4600
59.3000 5.5000 0.4600
101.7000 5.5000 0.4600
144.1000 5.5000 0.4600
186.5000 5.5000 0.4600
163.3000 7.9000 0.4600
120.9000 7.9000 0.4600
78.5000 7.9000 0.4600
36.1000 7.9000 0.4600
16.7000 6.5000 0.4600
59.1000 6.5000 0.4600
101.5000 6.5000 0.4600
143.9000 6.5000 0.4600
186.3000 6.5000 0.4600
159.5000 6.9000 0.4600
117.1000 6.9000 0.4600
74.7000 6.9000 0.4600
32.3000 6.9000 0.4600
22.8000 7.4000 0.4600
65.2000 7.4000 0.4600
107.6000 7.4000 0.4600
150.0000 7.4000 0.4600
192.4000 7.4000 0.4600
155.4000 6.0000 0.4600
113.0000 6.0000 0.4600
70.6000 6.0000 0.4600
28.2000 6.0000 0.4600
22.6000 8.4000 0.4600
65.0000 8.4000 0.4600
107.4000 8.4000 0.4600
149.8000 8.4000 0.4600
192.2000 8.4000 0.4600
159.6000 5.0000 0.4600
117.2000 5.0000 0.4600
74.8000 5.0000 0.4600
32.4000 5.0000 0.4600
14.4000 9.4000 0.4600
56.8000 9.4000 0.4600
99.2000 9.4000 0.4600
141.6000 9.4000 0.4600
184.0000 9.4000 0.4600
171.8000 4.0000 0.4600
129.4000 4.0000 0.4600
87.0000 4.0000 0.4600
44.6000 4.0000 0.4600
3.0000 5.6000 0.4600
40.6000 10.4000 0.4600
83.0000 10.4000 0.4600
125.4000 10.4000 0.4600
167.8000 10.4000 0.4600
192.0000 3.0000 0.4600
149.6000 3.0000 0.4600
107.2000 3.0000 0.4600
64.8000 3.0000 0.4600
22.4000 3.0000 0.4600
16.4000 11.4000 0.4600
58.8000 11.4000 0.4600
101.2000 11.4000 0.4600
143.6000 11.4000 0.4600
186.0000 11.4000 0.4600
177.8000 2.0000 0.4600
135.4000 2.0000 0.4600
93.0000 2.0000 0.4600
50.6000 2.0000 0.4600
8.2000 2.0000 0.4600
26.6000 12.4000 0.4600
69.0000 12.4000 0.4600
111.4000 12.4000 0.4600
153.8000 12.4000 0.4600
196.2000 12.4000 0.4600
171.6000 1.0000 0.4600
129.2000 1.0000 0.4600
86.8000 1.0000 0.4600
44.4000 1.0000 0.4600
2.0000 1.0000 0.4600
40.7000 0.9000 0.5900
83.1000 0.9000 0.5900
125.5000 0.9000 0.5900
167.9000 0.9000 0.5900
199.5000 11.7000 0.5900
157.9000 12.5000 0.5900
115.5000 12.5000 0.5900
73.1000 12.5000 0.5900
30.7000 12.5000 0.5900
3.5000 1.7000 0.5900
45.9000 1.7000 0.5900
88.3000 1.7000 0.5900
130.7000 1.7000 0.5900
173.1000 1.7000 0.5900
191.9000 11.7000 0.5900
149.5000 11.7000 0.5900
107.1000 11.7000 0.5900
64.7000 11.7000 0.5900
22.3000 11.7000 0.5900
15.1000 2.5000 0.5900
57.5000 2.5000 0.5900
99.9000 2.5000 0.5900
142.3000 2.5000 0.5900
184.7000 2.5000 0.5900
177.1000 10.9000 0.5900
134.7000 10.9000 0.5900
92.3000 10.9000 0.5900
49.9000 10.9000 0.5900
7.5000 10.9000 0.5900
33.1000 3.3000 0.5900
75.5000 3.3000 0.5900
117.9000 3.3000 0.5900
160.3000 3.3000 0.5900
197.1000 8.9000 0.5900
155.9000 10.1000 0.5900
113.5000 10.1000 0.5900
71.1000 10.1000 0.5900
28.7000 10.1000 0.5900
15.1000 4.1000 0.5900
57.5000 4.1000 0.5900
99.9000 4.1000 0.5900
142.3000 4.1000 0.5900
184.7000 4.1000 0.5900
170.7000 9.3000 0.5900
128.3000 9.3000 0.5900
85.9000 9.3000 0.5900
43.5000 9.3000 0.5900
4.1000 6.3000 0.5900
45.9000 4.9000 0.5900
88.3000 4.9000 0.5900
130.7000 4.9000 0.5900
173.1000 4.9000 0.5900
179.1000 8.5000 0.5900
136.7000 8.5000 0.5900
94.3000 8.5000 0.5900
51.9000 8.5000 0.5900
9.5000 8.5000 0.5900
40.7000 5.7000 0.5900
83.1000 5.7000 0.5900
125.5000 5.7000 0.5900
167.9000 5.7000 0.5900
181.1000 7.7000 0.5900
138.7000 7.7000 0.5900
96.3000 7.7000 0.5900
53.9000 7.7000 0.5900
11.5000 7.7000 0.5900
41.9000 6.5000 0.5900
84.3000 6.5000 0.5900
126.7000 6.5000 0.5900
169.1000 6.5000 0.5900
176.7000 6.9000 0.5900
134.3000 6.9000 0.5900
91.9000 6.9000 0.5900
49.5000 6.9000 0.5900
6.6333 7.1000 0.5900
48.3000 7.3000 0.5900
90.7000 7.3000 0.5900
133.1000 7.3000 0.5900
175.5000 7.3000 0.5900
171.9000 6.1000 0.5900
129.5000 6.1000 0.5900
87.1000 6.1000 0.5900
44.7000 6.1000 0.5900
7.1000 8.1000 0.5900
49.5000 8.1000 0.5900
91.9000 8.1000 0.5900
134.3000 8.1000 0.5900
176.7000 8.1000 0.5900
173.9000 5.3000 0.5900
131.5000 5.3000 0.5900
89.1000 5.3000 0.5900
46.7000 5.3000 0.5900
4.5000 6.3000 0.5900
44.3000 8.9000 0.5900
86.7000 8.9000 0.5900
129.1000 8.9000 0.5900
171.5000 8.9000 0.5900
182.3000 4.5000 0.5900
139.9000 4.5000 0.5900
97.5000 4.5000 0.5900
55.1000 4.5000 0.5900
12.7000 4.5000 0.5900
32.7000 9.7000 0.5900
75.1000 9.7000 0.5900
117.5000 9.7000 0.5900
159.9000 9.7000 0.5900
196.7000 4.1000 0.5900
154.7000 3.7000 0.5900
112.3000 3.7000 0.5900
69.9000 3.7000 0.5900
27.5000 3.7000 0.5900
14.7000 10.5000 0.5900
57.1000 10.5000 0.5900
99.5000 10.5000 0.5900
141.9000 10.5000 0.5900
184.3000 10.5000 0.5900
175.9000 2.9000 0.5900
133.5000 2.9000 0.5900
91.1000 2.9000 0.5900
48.7000 2.9000 0.5900
6.3000 2.9000 0.5900
32.7000 11.3000 0.5900
75.1000 11.3000 0.5900
117.5000 11.3000 0.5900
159.9000 11.3000 0.5900
198.3000 7.3000 0.5900
161.1000 2.1000 0.5900
118.7000 2.1000 0.5900
76.3000 2.1000 0.5900
33.9000 2.1000 0.5900
1.9000 12.1000 0.5900
44.3000 12.1000 0.5900
86.7000 12.1000 0.5900
129.1000 12.1000 0.5900
171.5000 12.1000 0.5900
195.1000 1.3000 0.5900
152.7000 1.3000 0.5900
110.3000 1.3000 0.5900
67.9000 1.3000 0.5900
25.5000 1.3000 0.5900
6.9000 12.9000 0.5900
49.3000 12.9000 0.5900
91.7000 12.9000 0.5900
134.1000 12.9000 0.5900
176.5000 12.9000 0.5900
193.0657 0.5000 0.5900
150.6657 0.5000 0.5900
108.2657 0.5000 0.5900
65.8657 0.5000 0.5900
23.4657 0.5000 0.5900
19.8657 0.5000 0.7200
62.2657 0.5000 0.7200
104.6657 0.5000 0.7200
147.0657 0.5000 0.7200
189.4657 0.5000 0.7200
180.1000 12.9000 0.7200
137.7000 12.9000 0.7200
95.3000 12.9000 0.7200
52.9000 12.9000 0.7200
10.5000 12.9000 0.7200
22.5000 1.5000 0.7200
64.9000 1.5000 0.7200
107.3000 1.5000 0.7200
149.7000 1.5000 0.7200
192.1000 1.5000 0.7200
173.7000 11.9000 0.7200
131.3000 11.9000 0.7200
88.9000 11.9000 0.7200
46.5000 11.9000 0.7200
4.1000 11.9000 0.7200
32.7000 2.5000 0.7200
75.1000 2.5000 0.7200
117.5000 2.5000 0.7200
159.9000 2.5000 0.7200
197.9000 6.9000 0.7200
159.5000 10.9000 0.7200
117.1000 10.9000 0.7200
74.7000 10.9000 0.7200
32.3000 10.9000 0.7200
8.5000 3.5000 0.7200
50.9000 3.5000 0.7200
93.3000 3.5000 0.7200
135.7000 3.5000 0.7200
178.1000 3.5000 0.7200
179.7000 9.9000 0.7200
137.3000 9.9000 0.7200
94.9000 9.9000 0.7200
52.5000 9.9000 0.7200
10.1000 9.9000 0.7200
34.7000 4.5000 0.7200
77.1000 4.5000 0.7200
119.5000 4.5000 0.7200
161.9000 4.5000 0.7200
191.9000 8.9000 0.7200
149.5000 8.9000 0.7200
107.1000 8.9000 0.7200
64.7000 8.9000 0.7200
22.3000 8.9000 0.7200
26.5000 5.5000 0.7200
68.9000 5.5000 0.7200
111.3000 5.5000 0.7200
153.7000 5.5000 0.7200
194.9000 6.7000 0.7200
153.7000 7.9000 0.7200
111.3000 7.9000 0.7200
68.9000 7.9000 0.7200
26.5000 7.9000 0.7200
26.3000 6.5000 0.7200
68.7000 6.5000 0.7200
111.1000 6.5000 0.7200
153.5000 6.5000 0.7200
192.3000 6.9000 0.7200
149.9000 6.9000 0.7200
107.5000 6.9000 0.7200
65.1000 6.9000 0.7200
22.7000 6.9000 0.7200
32.4000 7.4000 0.7200
74.8000 7.4000 0.7200
117.2000 7.4000 0.7200
159.6000 7.4000 0.7200
188.2000 6.0000 0.7200
145.8000 6.0000 0.7200
103.4000 6.0000 0.7200
61.0000 6.0000 0.7200
18.6000 6.0000 0.7200
32.2000 8.4000 0.7200
74.6000 8.4000 0.7200
117.0000 8.4000 0.7200
159.4000 8.4000 0.7200
192.4000 5.0000 0.7200
150.0000 5.0000 0.7200
107.6000 5.0000 0.7200
65.2000 5.0000 0.7200
22.8000 5.0000 0.7200
24.0000 9.4000 0.7200
66.4000 9.4000 0.7200
108.8000 9.4000 0.7200
151.2000 9.4000 0.7200
193.6000 9.4000 0.7200
162.2000 4.0000 0.7200
119.8000 4.0000 0.7200
77.4000 4.0000 0.7200
35.0000 4.0000 0.7200
7.8000 10.4000 0.7200
50.2000 10.4000 0.7200
92.6000 10.4000 0.7200
135.0000 10.4000 0.7200
177.4000 10.4000 0.7200
182.4000 3.0000 0.7200
140.0000 3.0000 0.7200
97.6000 3.0000 0.7200
55.2000 3.0000 0.7200
12.8000 3.0000 0.7200
26.0000 11.4000 0.7200
68.4000 11.4000 0.7200
110.8000 11.4000 0.7200
153.2000 11.4000 0.7200
195.6000 11.4000 0.7200
168.2000 2.0000 0.7200
125.8000 2.0000 0.7200
83.4000 2.0000 0.7200
41.0000 2.0000 0.7200
1.0000 5.2000 0.7200
36.2000 12.4000 0.7200
78.6000 12.4000 0.7200
121.0000 12.4000 0.7200
163.4000 12.4000 0.7200
199.4000 6.0000 0.7200
162.0000 1.0000 0.7200
119.6000 1.0000 0.7200
77.2000 1.0000 0.7200
34.8000 1.0000 0.7200
7.9000 0.9000 0.8500
50.3000 0.9000 0.8500
92.7000 0.9000 0.8500
135.1000 0.9000 0.8500
177.5000 0.9000 0.8500
190.7000 12.5000 0.8500
148.3000 12.5000 0.8500
105.9000 12.5000 0.8500
63.5000 12.5000 0.8500
21.1000 12.5000 0.8500
13.1000 1.7000 0.8500
55.5000 1.7000 0.8500
97.9000 1.7000 0.8500
140.3000 1.7000 0.8500
182.7000 1.7000 0.8500
182.3000 11.7000 0.8500
139.9000 11.7000 0.8500
97.5000 11.7000 0.8500
55.1000 11.7000 0.8500
12.7000 11.7000 0.8500
24.7000 2.5000 0.8500
67.1000 2.5000 0.8500
109.5000 2.5000 0.8500
151.9000 2.5000 0.8500
194.3000 2.5000 0.8500
167.5000 10.9000 0.8500
125.1000 10.9000 0.8500
82.7000 10.9000 0.8500
40.3000 10.9000 0.8500
2.5000 6.3000 0.8500
42.7000 3.3000 0.8500
85.1000 3.3000 0.8500
127.5000 3.3000 0.8500
169.9000 3.3000 0.8500
188.7000 10.1000 0.8500
146.3000 10.1000 0.8500
103.9000 10.1000 0.8500
61.5000 10.1000 0.8500
19.1000 10.1000 0.8500
24.7000 4.1000 0.8500
67.1000 4.1000 0.8500
109.5000 4.1000 0.8500
151.9000 4.1000 0.8500
194.3000 4.1000 0.8500
161.1000 9.3000 0.8500
118.7000 9.3000 0.8500
76.3000 9.3000 0.8500
33.9000 9.3000 0.8500
13.1000 4.9000 0.8500
55.5000 4.9000 0.8500
97.9000 4.9000 0.8500
140.3000 4.9000 0.8500
182.7000 4.9000 0.8500
169.5000 8.5000 0.8500
127.1000 8.5000 0.8500
84.7000 8.5000 0.8500
42.3000 8.5000 0.8500
7.9000 5.7000 0.8500
50.3000 5.7000 0.8500
92.7000 5.7000 0.8500
135.1000 5.7000 0.8500
177.5000 5.7000 0.8500
171.5000 7.7000 0.8500
129.1000 7.7000 0.8500
86.7000 7.7000 0.8500
44.3000 7.7000 0.8500
9.1000 6.5000 0.8500
51.5000 6.5000 0.8500
93.9000 6.5000 0.8500
136.3000 6.5000 0.8500
178.7000 6.5000 0.8500
167.1000 6.9000 0.8500
124.7000 6.9000 0.8500
82.3000 6.9000 0.8500
39.9000 6.9000 0.8500
15.5000 7.3000 0.8500
57.9000 7.3000 0.8500
100.3000 7.3000 0.8500
142.7000 7.3000 0.8500
185.1000 7.3000 0.8500
162.3000 6.1000 0.8500
119.9000 6.1000 0.8500
77.5000 6.1000 0.8500
35.1000 6.1000 0.8500
16.7000 8.1000 0.8500
59.1000 8.1000 0.8500
101.5000 8.1000 0.8500
143.9000 8.1000 0.8500
186.3000 8.1000 0.8500
164.3000 5.3000 0.8500
121.9000 5.3000 0.8500
79.5000 5.3000 0.8500
37.1000 5.3000 0.8500
11.5000 8.9000 0.8500
53.9000 8.9000 0.8500
96.3000 8.9000 0.8500
138.7000 8.9000 0.8500
181.1000 8.9000 0.8500
172.7000 4.5000 0.8500
130.3000 4.5000 0.8500
87.9000 4.5000 0.8500
45.5000 4.5000 0.8500
3.7000 5.9000 0.8500
42.3000 9.7000 0.8500
84.7000 9.7000 0.8500
127.1000 9.7000 0.8500
169.5000 9.7000 0.8500
187.5000 3.7000 0.8500
145.1000 3.7000 0.8500
102.7000 3.7000 0.8500
60.3000 3.7000 0.8500
17.9000 3.7000 0.8500
24.3000 10.5000 0.8500
66.7000 10.5000 0.8500
109.1000 10.5000 0.8500
151.5000 10.5000 0.8500
193.9000 10.5000 0.8500
166.3000 2.9000 0.8500
123.9000 2.9000 0.8500
81.5000 2.9000 0.8500
39.1000 2.9000 0.8500
2.1000 9.1000 0.8500
42.3000 11.3000 0.8500
84.7000 11.3000 0.8500
127.1000 11.3000 0.8500
169.5000 11.3000 0.8500
193.9000 2.1000 0.8500
151.5000 2.1000 0.8500
109.1000 2.1000 0.8500
66.7000 2.1000 0.8500
24.3000 2.1000 0.8500
11.5000 12.1000 0.8500
53.9000 12.1000 0.8500
96.3000 12.1000 0.8500
138.7000 12.1000 0.8500
181.1000 12.1000 0.8500
185.5000 1.3000 0.8500
143.1000 1.3000 0.8500
100.7000 1.3000 0.8500
58.3000 1.3000 0.8500
15.9000 1.3000 0.8500
16.5000 12.9000 0.8500
58.9000 12.9000 0.8500
101.3000 12.9000 0.8500
143.7000 12.9000 0.8500
186.1000 12.9000 0.8500
183.4657 0.5000 0.8500
141.0657 0.5000 0.8500
98.6657 0.5000 0.8500
56.2657 0.5000 0.8500
13.8657 0.5000 0.8500
29.4657 0.5000 0.9800
71.8657 0.5000 0.9800
114.2657 0.5000 0.9800
156.6657 0.5000 0.9800
199.0657 0.5000 0.9800
170.5000 12.9000 0.9800
128.1000 12.9000 0.9800
85.7000 12.9000 0.9800
43.3000 12.9000 0.9800
0.9000 12.9000 0.9800
32.1000 1.5000 0.9800
74.5000 1.5000 0.9800
116.9000 1.5000 0.9800
159.3000 1.5000 0.9800
198.9000 4.3000 0.9800
164.1000 11.9000 0.9800
121.7000 11.9000 0.9800
79.3000 11.9000 0.9800
36.9000 11.9000 0.9800
1.5000 4.9000 0.9800
42.3000 2.5000 0.9800
84.7000 2.5000 0.9800
127.1000 2.5000 0.9800
169.5000 2.5000 0.9800
192.3000 10.9000 0.9800
149.9000 10.9000 0.9800
107.5000 10.9000 0.9800
65.1000 10.9000 0.9800
22.7000 10.9000 0.9800
18.1000 3.5000 0.9800
60.5000 3.5000 0.9800
102.9000 3.5000 0.9800
145.3000 3.5000 0.9800
187.7000 3.5000 0.9800
170.1000 9.9000 0.9800
127.7000 9.9000 0.9800
85.3000 9.9000 0.9800
42.9000 9.9000 0.9800
3.5000 6.9000 0.9800
44.3000 4.5000 0.9800
86.7000 4.5000 0.9800
129.1000 4.5000 0.9800
171.5000 4.5000 0.9800
182.3000 8.9000 0.9800
139.9000 8.9000 0.9800
97.5000 8.9000 0.9800
55.1000 8.9000 0.9800
12.7000 8.9000 0.9800
36.1000 5.5000 0.9800
78.5000 5.5000 0.9800
120.9000 5.5000 0.9800
163.3000 5.5000 0.9800
186.5000 7.9000 0.9800
144.1000 7.9000 0.9800
101.7000 7.9000 0.9800
59.3000 7.9000 0.9800
16.9000 7.9000 0.9800
35.9000 6.5000 0.9800
78.3000 6.5000 0.9800
120.7000 6.5000 0.9800
163.1000 6.5000 0.9800
182.7000 6.9000 0.9800
140.3000 6.9000 0.9800
97.9000 6.9000 0.9800
55.5000 6.9000 0.9800
13.1000 6.9000 0.9800
42.0000 7.4000 0.9800
84.4000 7.4000 0.9800
126.8000 7.4000 0.9800
169.2000 7.4000 0.9800
178.6000 6.0000 0.9800
136.2000 6.0000 0.9800
93.8000 6.0000 0.9800
51.4000 6.0000 0.9800
9.0000 6.0000 0.9800
41.8000 8.4000 0.9800
84.2000 8.4000 0.9800
126.6000 8.4000 0.9800
169.0000 8.4000 0.9800
182.8000 5.0000 0.9800
140.4000 5.0000 0.9800
98.0000 5.0000 0.9800
55.6000 5.0000 0.9800
13.2000 5.0000 0.9800
33.6000 9.4000 0.9800
76.0000 9.4000 0.9800
118.4000 9.4000 0.9800
160.8000 9.4000 0.9800
195.0000 4.0000 0.9800
152.6000 4.0000 0.9800
110.2000 4.0000 0.9800
67.8000 4.0000 0.9800
25.4000 4.0000 0.9800
17.4000 10.4000 0.9800
59.8000 10.4000 0.9800
102.2000 10.4000 0.9800
144.6000 10.4000 0.9800
187.0000 10.4000 0.9800
172.8000 3.0000 0.9800
130.4000 3.0000 0.9800
88.0000 3.0000 0.9800
45.6000 3.0000 0.9800
2.9333 3.0000 0.9800
35.6000 11.4000 0.9800
78.0000 11.4000 0.9800
120.4000 11.4000 0.9800
162.8000 11.4000 0.9800
198.4000 4.6000 0.9800
158.6000 2.0000 0.9800
116.2000 2.0000 0.9800
73.8000 2.0000 0.9800
31.4000 2.0000 0.9800
3.4000 12.4000 0.9800
45.8000 12.4000 0.9800
88.2000 12.4000 0.9800
130.6000 12.4000 0.9800
173.0000 12.4000 0.9800
194.8000 1.0000 0.9800
152.4000 1.0000 0.9800
110.0000 1.0000 0.9800
67.6000 1.0000 0.9800
25.2000 1.0000 0.9800
17.5000 0.9000 1.1100
59.9000 0.9000 1.1100
102.3000 0.9000 1.1100
144.7000 0.9000 1.1100
187.1000 0.9000 1.1100
181.1000 12.5000 1.1100
138.7000 12.5000 1.1100
96.3000 12.5000 1.1100
53.9000 12.5000 1.1100
11.5000 12.5000 1.1100
22.7000 1.7000 1.1100
65.1000 1.7000 1.1100
107.5000 1.7000 1.1100
149.9000 1.7000 1.1100
192.3000 1.7000 1.1100
172.7000 11.7000 1.1100
130.3000 11.7000 1.1100
87.9000 11.7000 1.1100
45.5000 11.7000 1.1100
3.1000 11.7000 1.1100
34.3000 2.5000 1.1100
76.7000 2.5000 1.1100
119.1000 2.5000 1.1100
161.5000 2.5000 1.1100
197.9000 8.5000 1.1100
157.9000 10.9000 1.1100
115.5000 10.9000 1.1100
73.1000 10.9000 1.1100
30.7000 10.9000 1.1100
9.9000 3.3000 1.1100
52.3000 3.3000 1.1100
94.7000 3.3000 1.1100
137.1000 3.3000 1.1100
179.5000 3.3000 1.1100
179.1000 10.1000 1.1100
136.7000 10.1000 1.1100
94.3000 10.1000 1.1100
51.9000 10.1000 1.1100
9.5000 10.1000 1.1100
34.3000 4.1000 1.1100
76.7000 4.1000 1.1100
119.1000 4.1000 1.1100
161.5000 4.1000 1.1100
193.9000 9.3000 1.1100
151.5000 9.3000 1.1100
109.1000 9.3000 1.1100
66.7000 9.3000 1.1100
24.3000 9.3000 1.1100
22.7000 4.9000 1.1100
65.1000 4.9000 1.1100
107.5000 4.9000 1.1100
149.9000 4.9000 1.1100
192.3000 4.9000 1.1100
159.9000 8.5000 1.1100
117.5000 8.5000 1.1100
75.1000 8.5000 1.1100
32.7000 8.5000 1.1100
17.5000 5.7000 1.1100
59.9000 5.7000 1.1100
102.3000 5.7000 1.1100
144.7000 5.7000 1.1100
187.1000 5.7000 1.1100
161.9000 7.7000 1.1100
119.5000 7.7000 1.1100
77.1000 7.7000 1.1100
34.7000 7.7000 1.1100
18.7000 6.5000 1.1100
61.1000 6.5000 1.1100
103.5000 6.5000 1.1100
145.9000 6.5000 1.1100
188.3000 6.5000 1.1100
157.5000 6.9000 1.1100
115.1000 6.9000 1.1100
72.7000 6.9000 1.1100
30.3000 6.9000 1.1100
25.1000 7.3000 1.1100
67.5000 7.3000 1.1100
109.9000 7.3000 1.1100
152.3000 7.3000 1.1100
194.3000 6.9000 1.1100
152.7000 6.1000 1.1100
110.3000 6.1000 1.1100
67.9000 6.1000 1.1100
25.5000 6.1000 1.1100
26.3000 8.1000 1.1100
68.7000 8.1000 1.1100
111.1000 8.1000 1.1100
153.5000 8.1000 1.1100
195.1000 7.3000 1.1100
154.7000 5.3000 1.1100
112.3000 5.3000 1.1100
69.9000 5.3000 1.1100
27.5000 5.3000 1.1100
21.1000 8.9000 1.1100
63.5000 8.9000 1.1100
105.9000 8.9000 1.1100
148.3000 8.9000 1.1100
190.7000 8.9000 1.1100
163.1000 4.5000 1.1100
120.7000 4.5000 1.1100
78.3000 4.5000 1.1100
35.9000 4.5000 1.1100
9.5000 9.7000 1.1100
51.9000 9.7000 1.1100
94.3000 9.7000 1.1100
136.7000 9.7000 1.1100
179.1000 9.7000 1.1100
177.9000 3.7000 1.1100
135.5000 3.7000 1.1100
93.1000 3.7000 1.1100
50.7000 3.7000 1.1100
8.3000 3.7000 1.1100
33.9000 10.5000 1.1100
76.3000 10.5000 1.1100
118.7000 10.5000 1.1100
161.1000 10.5000 1.1100
197.5000 4.5000 1.1100
156.7000 2.9000 1.1100
114.3000 2.9000 1.1100
71.9000 2.9000 1.1100
29.5000 2.9000 1.1100
9.5000 11.3000 1.1100
51.9000 11.3000 1.1100
94.3000 11.3000 1.1100
136.7000 11.3000 1.1100
179.1000 11.3000 1.1100
184.3000 2.1000 1.1100
141.9000 2.1000 1.1100
99.5000 2.1000 1.1100
57.1000 2.1000 1.1100
14.7000 2.1000 1.1100
21.1000 12.1000 1.1100
63.5000 12.1000 1.1100
105.9000 12.1000 1.1100
148.3000 12.1000 1.1100
190.7000 12.1000 1.1100
175.9000 1.3000 1.1100
133.5000 1.3000 1.1100
91.1000 1.3000 1.1100
48.7000 1.3000 1.1100
6.3000 1.3000 1.1100
26.1000 12.9000 1.1100
68.5000 12.9000 1.1100
110.9000 12.9000 1.1100
153.3000 12.9000 1.1100
195.7000 12.9000 1.1100
173.8657 0.5000 1.1100
131.4657 0.5000 1.1100
89.0657 0.5000 1.1100
46.6657 0.5000 1.1100
4.2657 0.5000 1.1100
39.0657 0.5000 1.2400
81.4657 0.5000 1.2400
123.8657 0.5000 1.2400
166.2657 0.5000 1.2400
199.9000 9.3828 1.2400
160.9000 12.9000 1.2400
118.5000 12.9000 1.2400
76.1000 12.9000 1.2400
33.7000 12.9000 1.2400
0.5000 3.7000 1.2400
41.7000 1.5000 1.2400
84.1000 1.5000 1.2400
126.5000 1.5000 1.2400
168.9000 1.5000 1.2400
196.9000 11.9000 1.2400
154.5000 11.9000 1.2400
112.1000 11.9000 1.2400
69.7000 11.9000 1.2400
27.3000 11.9000 1.2400
9.5000 2.5000 1.2400
51.9000 2.5000 1.2400
94.3000 2.5000 1.2400
136.7000 2.5000 1.2400
179.1000 2.5000 1.2400
182.7000 10.9000 1.2400
140.3000 10.9000 1.2400
97.9000 10.9000 1.2400
55.5000 10.9000 1.2400
13.1000 10.9000 1.2400
27.7000 3.5000 1.2400
70.1000 3.5000 1.2400
112.5000 3.5000 1.2400
154.9000 3.5000 1.2400
196.9000 3.9000 1.2400
160.5000 9.9000 1.2400
118.1000 9.9000 1.2400
75.7000 9.9000 1.2400
33.3000 9.9000 1.2400
11.5000 4.5000 1.2400
53.9000 4.5000 1.2400
96.3000 4.5000 1.2400
138.7000 4.5000 1.2400
181.1000 4.5000 1.2400
172.7000 8.9000 1.2400
130.3000 8.9000 1.2400
87.9000 8.9000 1.2400
45.5000 8.9000 1.2400
4.5000 7.5000 1.2400
45.7000 5.5000 1.2400
88.1000 5.5000 1.2400
130.5000 5.5000 1.2400
172.9000 5.5000 1.2400
176.9000 7.9000 1.2400
134.5000 7.9000 1.2400
92.1000 7.9000 1.2400
49.7000 7.9000 1.2400
7.3000 7.9000 1.2400
45.5000 6.5000 1.2400
87.9000 6.5000 1.2400
130.3000 6.5000 1.2400
172.7000 6.5000 1.2400
173.1000 6.9000 1.2400
130.7000 6.9000 1.2400
88.3000 6.9000 1.2400
45.9000 6.9000 1.2400
9.2000 7.4000 1.2400
51.6000 7.4000 1.2400
94.0000 7.4000 1.2400
136.4000 7.4000 1.2400
178.8000 7.4000 1.2400
169.0000 6.0000 1.2400
126.6000 6.0000 1.2400
84.2000 6.0000 1.2400
41.8000 6.0000 1.2400
9.0000 8.4000 1.2400
51.4000 8.4000 1.2400
93.8000 8.4000 1.2400
136.2000 8.4000 1.2400
178.6000 8.4000 1.2400
173.2000 5.0000 1.2400
130.8000 5.0000 1.2400
88.4000 5.0000 1.2400
46.0000 5.0000 1.2400
4.0000 6.2000 1.2400
43.2000 9.4000 1.2400
85.6000 9.4000 1.2400
128.0000 9.4000 1.2400
170.4000 9.4000 1.2400
185.4000 4.0000 1.2400
143.0000 4.0000 1.2400
100.6000 4.0000 1.2400
58.2000 4.0000 1.2400
15.8000 4.0000 1.2400
27.0000 10.4000 1.2400
69.4000 10.4000 1.2400
111.8000 10.4000 1.2400
154.2000 10.4000 1.2400
196.6000 10.4000 1.2400
163.2000 3.0000 1.2400
120.8000 3.0000 1.2400
78.4000 3.0000 1.2400
36.0000 3.0000 1.2400
2.8000 11.4000 1.2400
45.2000 11.4000 1.2400
87.6000 11.4000 1.2400
130.0000 11.4000 1.2400
172.4000 11.4000 1.2400
191.4000 2.0000 1.2400
149.0000 2.0000 1.2400
106.6000 2.0000 1.2400
64.2000 2.0000 1.2400
21.8000 2.0000 1.2400
13.0000 12.4000 1.2400
55.4000 12.4000 1.2400
97.8000 12.4000 1.2400
140.2000 12.4000 1.2400
182.6000 12.4000 1.2400
185.2000 1.0000 1.2400
142.8000 1.0000 1.2400
100.4000 1.0000 1.2400
58.0000 1.0000 1.2400
15.6000 1.0000 1.2400
27.1000 0.9000 1.3700
69.5000 0.9000 1.3700
111.9000 0.9000 1.3700
154.3000 0.9000 1.3700
196.7000 0.9000 1.3700
171.5000 12.5000 1.3700
129.1000 12.5000 1.3700
86.7000 12.5000 1.3700
44.3000 12.5000 1.3700
1.9000 12.5000 1.3700
32.3000 1.7000 1.3700
74.7000 1.7000 1.3700
117.1000 1.7000 1.3700
159.5000 1.7000 1.3700
198.7000 4.9000 1.3700
163.1000 11.7000 1.3700
120.7000 11.7000 1.3700
78.3000 11.7000 1.3700
35.9000 11.7000 1.3700
1.7000 3.5000 1.3700
43.9000 2.5000 1.3700
86.3000 2.5000 1.3700
128.7000 2.5000 1.3700
171.1000 2.5000 1.3700
190.7000 10.9000 1.3700
148.3000 10.9000 1.3700
105.9000 10.9000 1.3700
63.5000 10.9000 1.3700
21.1000 10.9000 1.3700
19.5000 3.3000 1.3700
61.9000 3.3000 1.3700
104.3000 3.3000 1.3700
146.7000 3.3000 1.3700
189.1000 3.3000 1.3700
169.5000 10.1000 1.3700
127.1000 10.1000 1.3700
84.7000 10.1000 1.3700
42.3000 10.1000 1.3700
3.3000 6.7000 1.3700
43.9000 4.1000 1.3700
86.3000 4.1000 1.3700
128.7000 4.1000 1.3700
171.1000 4.1000 1.3700
184.3000 9.3000 1.3700
141.9000 9.3000 1.3700
99.5000 9.3000 1.3700
57.1000 9.3000 1.3700
14.7000 9.3000 1.3700
32.3000 4.9000 1.3700
74.7000 4.9000 1.3700
117.1000 4.9000 1.3700
159.5000 4.9000 1.3700
192.7000 8.5000 1.3700
150.3000 8.5000 1.3700
107.9000 8.5000 1.3700
65.5000 8.5000 1.3700
23.1000 8.5000 1.3700
27.1000 5.7000 1.3700
69.5000 5.7000 1.3700
111.9000 5.7000 1.3700
154.3000 5.7000 1.3700
194.5667 7.5667 1.3700
152.3000 7.7000 1.3700
109.9000 7.7000 1.3700
67.5000 7.7000 1.3700
25.1000 7.7000 1.3700
28.3000 6.5000 1.3700
70.7000 6.5000 1.3700
113.1000 6.5000 1.3700
155.5000 6.5000 1.3700
190.3000 6.9000 1.3700
147.9000 6.9000 1.3700
105.5000 6.9000 1.3700
63.1000 6.9000 1.3700
20.7000 6.9000 1.3700
34.7000 7.3000 1.3700
77.1000 7.3000 1.3700
119.5000 7.3000 1.3700
161.9000 7.3000 1.3700
185.5000 6.1000 1.3700
143.1000 6.1000 1.3700
100.7000 6.1000 1.3700
58.3000 6.1000 1.3700
15.9000 6.1000 1.3700
35.9000 8.1000 1.3700
78.3000 8.1000 1.3700
120.7000 8.1000 1.3700
163.1000 8.1000 1.3700
187.5000 5.3000 1.3700
145.1000 5.3000 1.3700
102.7000 5.3000 1.3700
60.3000 5.3000 1.3700
17.9000 5.3000 1.3700
30.7000 8.9000 1.3700
73.1000 8.9000 1.3700
115.5000 8.9000 1.3700
157.9000 8.9000 1.3700
195.7667 4.6333 1.3700
153.5000 4.5000 1.3700
111.1000 4.5000 1.3700
68.7000 4.5000 1.3700
26.3000 4.5000 1.3700
19.1000 9.7000 1.3700
61.5000 9.7000 1.3700
103.9000 9.7000 1.3700
146.3000 9.7000 1.3700
188.7000 9.7000 1.3700
168.3000 3.7000 1.3700
125.9000 3.7000 1.3700
83.5000 3.7000 1.3700
41.1000 3.7000 1.3700
2.9000 8.7000 1.3700
43.5000 10.5000 1.3700
85.9000 10.5000 1.3700
128.3000 10.5000 1.3700
170.7000 10.5000 1.3700
189.5000 2.9000 1.3700
147.1000 2.9000 1.3700
104.7000 2.9000 1.3700
62.3000 2.9000 1.3700
19.9000 2.9000 1.3700
19.1000 11.3000 1.3700
61.5000 11.3000 1.3700
103.9000 11.3000 1.3700
146.3000 11.3000 1.3700
188.7000 11.3000 1.3700
174.7000 2.1000 1.3700
132.3000 2.1000 1.3700
89.9000 2.1000 1.3700
47.5000 2.1000 1.3700
5.1000 2.1000 1.3700
30.7000 12.1000 1.3700
73.1000 12.1000 1.3700
115.5000 12.1000 1.3700
157.9000 12.1000 1.3700
199.1000 10.9000 1.3700
166.3000 1.3000 1.3700
123.9000 1.3000 1.3700
81.5000 1.3000 1.3700
39.1000 1.3000 1.3700
0.5000 5.7000 1.3700
35.7000 12.9000 1.3700
78.1000 12.9000 1.3700
120.5000 12.9000 1.3700
162.9000 12.9000 1.3700
199.9000 7.3828 1.3700
164.2657 0.5000 1.3700
121.8657 0.5000 1.3700
79.4657 0.5000 1.3700
37.0657 0.5000 1.3700
6.2657 0.5000 1.5000
48.6657 0.5000 1.5000
91.0657 0.5000 1.5000
133.4657 0.5000 1.5000
175.8657 0.5000 1.5000
193.7000 12.9000 1.5000
151.3000 12.9000 1.5000
108.9000 12.9000 1.5000
66.5000 12.9000 1.5000
24.1000 12.9000 1.5000
8.9000 1.5000 1.5000
51.3000 1.5000 1.5000
93.7000 1.5000 1.5000
136.1000 1.5000 1.5000
178.5000 1.5000 1.5000
187.3000 11.9000 1.5000
144.9000 11.9000 1.5000
102.5000 11.9000 1.5000
60.1000 11.9000 1.5000
17.7000 11.9000 1.5000
19.1000 2.5000 1.5000
61.5000 2.5000 1.5000
103.9000 2.5000 1.5000
146.3000 2.5000 1.5000
188.7000 2.5000 1.5000
173.1000 10.9000 1.5000
130.7000 10.9000 1.5000
88.3000 10.9000 1.5000
45.9000 10.9000 1.5000
3.5000 10.9000 1.5000
37.3000 3.5000 1.5000
79.7000 3.5000 1.5000
122.1000 3.5000 1.5000
164.5000 3.5000 1.5000
193.3000 9.9000 1.5000
150.9000 9.9000 1.5000
108.5000 9.9000 1.5000
66.1000 9.9000 1.5000
23.7000 9.9000 1.5000
21.1000 4.5000 1.5000
63.5000 4.5000 1.5000
105.9000 4.5000 1.5000
148.3000 4.5000 1.5000
190.7000 4.5000 1.5000
163.1000 8.9000 1.5000
120.7000 8.9000 1.5000
78.3000 8.9000 1.5000
35.9000 8.9000 1.5000
12.9000 5.5000 1.5000
55.3000 5.5000 1.5000
97.7000 5.5000 1.5000
140.1000 5.5000 1.5000
182.5000 5.5000 1.5000
167.3000 7.9000 1.5000
124.9000 7.9000 1.5000
82.5000 7.9000 1.5000
40.1000 7.9000 1.5000
12.7000 6.5000 1.5000
55.1000 6.5000 1.5000
97.5000 6.5000 1.5000
139.9000 6.5000 1.5000
182.3000 6.5000 1.5000
163.5000 6.9000 1.5000
121.1000 6.9000 1.5000
78.7000 6.9000 1.5000
36.3000 6.9000 1.5000
18.8000 7.4000 1.5000
61.2000 7.4000 1.5000
103.6000 7.4000 1.5000
146.0000 7.4000 1.5000
188.4000 7.4000 1.5000
159.4000 6.0000 1.5000
117.0000 6.0000 1.5000
74.6000 6.0000 1.5000
32.2000 6.0000 1.5000
18.6000 8.4000 1.5000
61.0000 8.4000 1.5000
103.4000 8.4000 1.5000
145.8000 8.4000 1.5000
188.2000 8.4000 1.5000
163.6000 5.0000 1.5000
121.2000 5.0000 1.5000
78.8000 5.0000 1.5000
36.4000 5.0000 1.5000
10.4000 9.4000 1.5000
52.8000 9.4000 1.5000
95.2000 9.4000 1.5000
137.6000 9.4000 1.5000
180.0000 9.4000 1.5000
175.8000 4.0000 1.5000
133.4000 4.0000 1.5000
91.0000 4.0000 1.5000
48.6000 4.0000 1.5000
6.2000 4.0000 1.5000
36.6000 10.4000 1.5000
79.0000 10.4000 1.5000
121.4000 10.4000 1.5000
163.8000 10.4000 1.5000
196.0000 3.0000 1.5000
153.6000 3.0000 1.5000
111.2000 3.0000 1.5000
68.8000 3.0000 1.5000
26.4000 3.0000 1.5000
12.4000 11.4000 1.5000
54.8000 11.4000 1.5000
97.2000 11.4000 1.5000
139.6000 11.4000 1.5000
182.0000 11.4000 1.5000
181.8000 2.0000 1.5000
139.4000 2.0000 1.5000
97.0000 2.0000 1.5000
54.6000 2.0000 1.5000
12.2000 2.0000 1.5000
22.6000 12.4000 1.5000
65.0000 12.4000 1.5000
107.4000 12.4000 1.5000
149.8000 12.4000 1.5000
192.2000 12.4000 1.5000
175.6000 1.0000 1.5000
133.2000 1.0000 1.5000
90.8000 1.0000 1.5000
48.4000 1.0000 1.5000
6.0000 1.0000 1.5000
0.5000 0.9000 1.5000