File: experimental_data/tensile_specimen_test_data/tensile_test_data/20250312/original_data/SSS 3 03-12-25 16 18 12 下午/数采：横梁, … - (实时值).csv
"文件路径: C:\Users\Lenovo\Desktop\Wayne\20250312\原始数据\SSS 3 03-12-25 16 18 12 下午\数采：横梁, … - (实时值).csv   "
"试验: 拉伸试验（UNIVER）      视频引伸计采集变形-W 1"
"试验运行: SSS 3"
"日期: 2025/3/12 12:11:57"
""
""
"横梁 ","力 ","视频引伸计变形 ","应变 ","时间 "
"mm","N","mm","mm/mm","sec"
"0.0025616","-5.99661","0.0001","2e-06","0.1"
"0.0131806","-4.51913","-0.0165","-0.00033","0.4"
"0.0231009","-3.20635","-0.0413","-0.000826","0.7"
"0.0332076","-1.34811","-0.0521","-0.001042","1"
"0.0432211","0.37411","-0.0606","-0.001212","1.3"
"0.0531881","2.20138","-0.0654","-0.001308","1.6"
"0.0632016","4.29362","-0.0654","-0.001308","1.9"
"0.0732151","5.94815","-0.066","-0.00132","2.2"
"0.0832286","7.69645","-0.0634","-0.001268","2.5"
"0.0931955","9.70209","-0.0615","-0.00123","2.8"
"0.103256","12.0002","-0.0599","-0.001198","3.1"
"0.113223","13.5541","-0.0565","-0.00113","3.4"
"0.12319","15.2883","-0.0538","-0.001076","3.7"
"0.13325","17.4856","-0.05","-0.001","4"
"0.14317","19.1437","-0.0448","-0.000896","4.3"
"0.15323","21.132","-0.0382","-0.000764","4.6"
"0.163197","23.0576","-0.0345","-0.00069","4.9"
"0.17321","24.7016","-0.0278","-0.000556","5.2"
"0.183177","26.7978","-0.0219","-0.000438","5.5"
"0.193238","28.8466","-0.0166","-0.000332","5.8"
"0.203251","30.7025","-0.0099","-0.000198","6.1"
"0.213171","32.371","-0.0046","-9.2e-05","6.4"
"0.223231","34.0824","0.0014","2.6e-05","6.7"
"0.233198","36.1844","0.0061","0.000122","7"
"0.243259","37.9424","0.0137","0.000274","7.3"
"0.253179","40.1461","0.0193","0.000386","7.6"
"0.263239","41.9491","0.0262","0.000524","7.9"
"0.273252","43.6037","0.032","0.00064","8.2"
"0.283173","45.534","0.0389","0.000778","8.5"
"0.293233","47.2201","0.0446","0.000892","8.8"
"0.3032","49.2258","0.0522","0.001044","9.1"
"0.313213","51.2568","0.0591","0.001182","9.4"
"0.323227","52.9591","0.0632","0.001264","9.7"
"0.333194","54.9897","0.071","0.00142","10"
"0.343254","56.8313","0.0784","0.001568","10.3"
"0.353174","58.5971","0.086","0.00172","10.6"
"0.363234","60.4505","0.0909","0.001818","10.9"
"0.373155","62.533","0.0987","0.001974","11.2"
"0.383261","64.4655","0.106","0.00212","11.5"
"0.393182","66.466","0.1119","0.002238","11.8"
"0.403195","67.9605","0.1195","0.00239","12.1"
"0.413209","69.6766","0.127","0.00254","12.4"
"0.423222","71.7275","0.1322","0.002644","12.7"
"0.433236","73.5503","0.1395","0.00279","13"
"0.443156","75.3253","0.1469","0.002938","13.3"
"0.453263","77.3631","0.1526","0.003052","13.6"
"0.46323","78.9411","0.1607","0.003214","13.9"
"0.473197","80.9134","0.1684","0.003368","14.2"
"0.48321","82.886","0.1749","0.003498","14.5"
"0.493177","84.8313","0.1817","0.003634","14.8"
"0.503237","86.4246","0.19","0.0038","15.1"
"0.513204","88.5049","0.1967","0.003934","15.4"
"0.523218","90.3571","0.2018","0.004036","15.7"
"0.533231","92.0433","0.2093","0.004186","16"
"0.543198","94.2633","0.2185","0.00437","16.3"
"0.553212","95.9224","0.2237","0.004474","16.6"
"0.563179","97.6745","0.231","0.00462","16.9"
"0.573239","99.5165","0.2391","0.004782","17.2"
"0.583206","101.5","0.2467","0.004934","17.5"
"0.593219","103.159","0.2516","0.005032","17.8"
"0.603186","105.122","0.2594","0.005188","18.1"
"0.613246","107.034","0.2681","0.005362","18.4"
"0.623213","108.691","0.2741","0.005482","18.7"
"0.63318","110.585","0.2821","0.005642","19"
"0.64324","112.31","0.2895","0.00579","19.3"
"0.653207","114.049","0.2952","0.005904","19.6"
"0.663221","115.986","0.3028","0.006056","19.9"
"0.673188","117.82","0.3118","0.006236","20.2"
"0.683201","119.552","0.3165","0.00633","20.5"
"0.693215","121.492","0.3254","0.006508","20.8"
"0.703181","123.115","0.3326","0.006652","21.1"
"0.713242","124.943","0.3405","0.00681","21.4"
"0.723209","126.766","0.3468","0.006936","21.7"
"0.733222","128.611","0.3544","0.007088","22"
"0.743189","130.691","0.3625","0.00725","22.3"
"0.753202","132.379","0.3691","0.007382","22.6"
"0.763216","134.201","0.3754","0.007508","22.9"
"0.773183","135.96","0.3836","0.007672","23.2"
"0.783196","137.766","0.3904","0.007808","23.5"
"0.793163","139.666","0.3968","0.007936","23.8"
"0.80327","141.649","0.4053","0.008106","24.1"
"0.81319","143.103","0.4103","0.008206","24.4"
"0.823204","144.853","0.4181","0.008362","24.7"
"0.833217","146.869","0.4266","0.008532","25"
"0.843184","148.652","0.4345","0.00869","25.3"
"0.853244","150.371","0.439","0.00878","25.6"
"0.863165","152.286","0.4475","0.00895","25.9"
"0.873225","153.91","0.4563","0.009126","26.2"
"0.883238","155.764","0.4622","0.009244","26.5"
"0.893205","157.566","0.4699","0.009398","26.8"
"0.903219","159.33","0.4781","0.009562","27.1"
"0.913186","161.254","0.4835","0.00967","27.4"
"0.923246","163.105","0.4931","0.009862","27.7"
"0.933213","165.026","0.5014","0.010028","28"
"0.943226","166.604","0.5083","0.010166","28.3"
"0.95324","168.483","0.514","0.01028","28.6"
"0.963207","170.222","0.5225","0.01045","28.9"
"0.97322","172.208","0.5311","0.010622","29.2"
"0.983187","173.819","0.5354","0.010708","29.5"
"0.993294","175.56","0.5442","0.010884","29.8"
"1.00317","177.168","0.5527","0.011054","30.1"
"1.01318","179.003","0.5577","0.011154","30.4"
"1.02324","180.792","0.5662","0.011324","30.7"
"1.03321","182.48","0.5748","0.011496","31"
"1.04322","184.269","0.5824","0.011648","31.3"
"1.05319","186.096","0.5887","0.011774","31.6"
"1.06325","187.877","0.5962","0.011924","31.9"
"1.07317","189.738","0.604","0.01208","32.2"
"1.08323","191.337","0.6091","0.012182","32.5"
"1.0932","193.112","0.6181","0.012362","32.8"
"1.10321","195.025","0.6268","0.012536","33.1"
"1.11322","196.784","0.6322","0.012644","33.4"
"1.12319","198.54","0.6412","0.012824","33.7"
"1.1332","200.436","0.6491","0.012982","34"
"1.14322","201.945","0.6572","0.013144","34.3"
"1.15323","204.043","0.6624","0.013248","34.6"
"1.1632","205.245","0.6697","0.013394","34.9"
"1.17316","207.219","0.6794","0.013588","35.2"
"1.18327","208.901","0.6836","0.013672","35.5"
"1.19319","210.758","0.6931","0.013862","35.8"
"1.20321","212.348","0.7007","0.014014","36.1"
"1.21322","214.115","0.7059","0.014118","36.4"
"1.22323","215.662","0.7146","0.014292","36.7"
"1.2332","217.562","0.7226","0.014452","37"
"1.24317","219.102","0.7289","0.014578","37.3"
"1.25323","221.099","0.7367","0.014734","37.6"
"1.26319","222.731","0.7451","0.014902","37.9"
"1.27325","224.507","0.7501","0.015002","38.2"
"1.28317","226.09","0.7585","0.01517","38.5"
"1.29319","228.014","0.7672","0.015344","38.8"
"1.3032","229.438","0.7752","0.015504","39.1"
"1.31321","231.275","0.7799","0.015598","39.4"
"1.32323","233.141","0.7888","0.015776","39.7"
"1.33319","234.766","0.7978","0.015956","40"
"1.34325","236.358","0.8028","0.016056","40.3"
"1.35322","238.326","0.8109","0.016218","40.6"
"1.36319","239.837","0.819","0.01638","40.9"
"1.37325","241.463","0.8251","0.016502","41.2"
"1.38317","243.299","0.8331","0.016662","41.5"
"1.39323","245.152","0.8418","0.016836","41.8"
"1.4032","246.7","0.8495","0.01699","42.1"
"1.41326","248.222","0.855","0.0171","42.4"
"1.42318","250.291","0.8635","0.01727","42.7"
"1.43319","251.846","0.8716","0.017432","43"
"1.4432","253.629","0.8772","0.017544","43.3"
"1.45322","255.108","0.8856","0.017712","43.6"
"1.46323","256.921","0.8948","0.017896","43.9"
"1.4732","258.732","0.9001","0.018002","44.2"
"1.48321","260.124","0.9075","0.01815","44.5"
"1.49322","261.784","0.9132","0.018264","44.8"
"1.50324","263.501","0.9195","0.01839","45.1"
"1.5132","265.278","0.9274","0.018548","45.4"
"1.52317","266.775","0.9353","0.018706","45.7"
"1.53323","268.56","0.9442","0.018884","46"
"1.5432","270.191","0.9504","0.019008","46.3"
"1.55321","271.697","0.959","0.01918","46.6"
"1.56323","273.64","0.9668","0.019336","46.9"
"1.57319","275.187","0.9719","0.019438","47.2"
"1.58321","277.005","0.9812","0.019624","47.5"
"1.59317","278.47","0.988","0.01976","47.8"
"1.60328","280.309","0.9941","0.019882","48.1"
"1.6132","281.863","1.0018","0.020036","48.4"
"1.62321","283.386","1.0106","0.020212","48.7"
"1.63318","284.944","1.0207","0.020414","49"
"1.64324","286.881","1.0244","0.020488","49.3"
"1.65321","288.251","1.0342","0.020684","49.6"
"1.66317","289.94","1.0419","0.020838","49.9"
"1.67323","291.686","1.0471","0.020942","50.2"
"1.6832","293.386","1.0554","0.021108","50.5"
"1.69326","295.117","1.0631","0.021262","50.8"
"1.70318","296.569","1.07","0.0214","51.1"
"1.7132","298.319","1.0775","0.02155","51.4"
"1.72326","299.913","1.0865","0.02173","51.7"
"1.73318","301.625","1.0935","0.02187","52"
"1.74324","303.071","1.1017","0.022034","52.3"
"1.7532","304.53","1.1094","0.022188","52.6"
"1.76322","306.482","1.118","0.02236","52.9"
"1.77318","308.146","1.1237","0.022474","53.2"
"1.7832","309.551","1.1312","0.022624","53.5"
"1.79326","311.236","1.1401","0.022802","53.8"
"1.80318","312.701","1.1456","0.022912","54.1"
"1.81324","314.503","1.1541","0.023082","54.4"
"1.8232","316.124","1.1622","0.023244","54.7"
"1.83322","317.844","1.1683","0.023366","55"
"1.84323","319.289","1.1753","0.023506","55.3"
"1.8532","320.819","1.1845","0.02369","55.6"
"1.86321","322.548","1.1927","0.023804","55.9"
"1.87318","324.057","1.1983","0.023966","56.2"
"1.88324","325.797","1.2072","0.024144","56.5"
"1.89316","327.379","1.2159","0.024318","56.8"
"1.90322","328.7","1.2211","0.024422","57.1"
"1.91323","330.386","1.2287","0.024574","57.4"
"1.9232","332.037","1.2366","0.024732","57.7"
"1.93321","333.859","1.2434","0.024868","58"
"1.94318","333.391","1.2524","0.025048","58.3"
"1.95324","334.864","1.2363","0.024726","58.6"
"1.96321","336.715","1.243","0.02486","58.9"
"1.97322","338.184","1.2493","0.024986","59.2"
"1.98323","339.653","1.2583","0.025166","59.5"
"1.9932","341.379","1.2666","0.025332","59.8"
"2.00322","342.874","1.2715","0.02543","60.1"
"2.01318","344.455","1.2799","0.025598","60.4"
"2.02324","345.917","1.2881","0.025762","60.7"
"2.03316","347.622","1.2937","0.025874","61"
"2.04322","349.25","1.3017","0.026034","61.3"
"2.05319","350.789","1.3111","0.026222","61.6"
"2.0632","352.069","1.3169","0.026338","61.9"
"2.07326","353.785","1.3257","0.026514","62.2"
"2.08318","355.227","1.3319","0.026638","62.5"
"2.09324","356.731","1.3389","0.026778","62.8"
"2.10321","358.38","1.3457","0.026914","63.1"
"2.11322","359.842","1.3547","0.027094","63.4"
"2.12319","361.301","1.3639","0.027278","63.7"
"2.1332","362.892","1.3699","0.027398","64"
"2.14326","364.269","1.3763","0.027526","64.3"
"2.15318","366.114","1.3862","0.027724","64.6"
"2.16324","367.471","1.3914","0.027828","64.9"
"2.17321","368.793","1.3996","0.027992","65.2"
"2.18323","370.489","1.4075","0.02815","65.5"
"2.19319","372.132","1.4125","0.02825","65.8"
"2.20321","373.768","1.4206","0.028412","66.1"
"2.21322","375.144","1.4297","0.028594","66.4"
"2.22314","376.657","1.4382","0.028764","66.7"
"2.23325","378.292","1.4436","0.028872","67"
"2.24317","379.745","1.4511","0.029022","67.3"
"2.25323","381.174","1.4599","0.029198","67.6"
"2.26324","382.483","1.4649","0.029298","67.9"
"2.27321","384.301","1.4734","0.029468","68.2"
"2.28322","385.679","1.4814","0.029628","68.5"
"2.29323","387.106","1.4874","0.029748","68.8"
"2.30325","388.63","1.4957","0.029914","69.1"
"2.31317","390.085","1.5053","0.030106","69.4"
"2.32323","391.489","1.5135","0.03027","69.7"
"2.33324","392.794","1.5184","0.030368","70"
"2.34321","394.513","1.5265","0.03053","70.3"
"2.35322","396.025","1.5345","0.03069","70.6"
"2.36319","397.481","1.5411","0.030822","70.9"
"2.37325","399.053","1.5497","0.030994","71.2"
"2.38317","400.594","1.5576","0.031152","71.5"
"2.39323","402.059","1.5627","0.031254","71.8"
"2.40324","403.197","1.5713","0.031426","72.1"
"2.41321","389.146","1.5319","0.030638","72.4"
"2.42322","390.554","1.5356","0.030712","72.7"
"2.43314","391.961","1.5429","0.030858","73"
"2.44325","393.475","1.5509","0.031018","73.3"
"2.45317","394.939","1.5581","0.031114","73.6"
"2.46318","396.27","1.5632","0.031264","73.9"
"2.4732","397.698","1.5714","0.031428","74.2"
"2.48321","399.25","1.5798","0.031596","74.5"
"2.49327","400.552","1.5844","0.031688","74.8"
"2.50315","402.22","1.5923","0.031846","75.1"
"2.51321","403.578","1.6007","0.032014","75.4"
"2.52322","404.645","1.606","0.03212","75.7"
"2.53323","406.136","1.614","0.03228","76"
"2.5432","407.563","1.6217","0.032434","76.3"
"2.55321","409.08","1.6304","0.032608","76.6"
"2.56323","410.512","1.6335","0.03267","76.9"
"2.57319","411.862","1.6429","0.032858","77.2"
"2.58325","413.103","1.6475","0.03295","77.5"
"2.59317","414.644","1.6568","0.033136","77.8"
"2.60319","415.671","1.6648","0.033296","78.1"
"2.61325","417.214","1.672","0.03344","78.4"
"2.62317","418.717","1.6775","0.03355","78.7"
"2.63327","419.913","1.6852","0.033704","79"
"2.64319","421.533","1.6931","0.033862","79.3"
"2.65321","422.854","1.6979","0.033958","79.6"
"2.66318","424.128","1.7045","0.03409","79.9"
"2.67324","425.375","1.7129","0.034258","80.2"
"2.68325","426.778","1.72","0.0344","80.5"
"2.69312","427.964","1.7257","0.034514","80.8"
"2.70323","429.272","1.7337","0.034674","81.1"
"2.71324","430.634","1.742","0.03484","81.4"
"2.72326","432.059","1.7462","0.034924","81.7"
"2.73318","433.552","1.7553","0.035106","82"
"2.74324","434.699","1.7627","0.035254","82.3"
"2.75325","436.228","1.7685","0.03537","82.6"
"2.76317","437.515","1.7772","0.035544","82.9"
"2.77323","438.944","1.7843","0.035686","83.2"
"2.7832","440.333","1.7894","0.035788","83.5"
"2.79321","441.492","1.797","0.03594","83.8"
"2.80322","442.862","1.806","0.03612","84.1"
"2.81319","444.283","1.8139","0.036278","84.4"
"2.82325","445.382","1.8179","0.036358","84.7"
"2.83317","446.797","1.8264","0.036528","85"
"2.84323","448.189","1.8341","0.036682","85.3"
"2.8532","449.514","1.8398","0.036796","85.6"
"2.86326","450.723","1.847","0.03694","85.9"
"2.87323","452.019","1.8556","0.037112","86.2"
"2.88319","453.216","1.8617","0.037234","86.5"
"2.89321","454.66","1.8687","0.037374","86.8"
"2.90322","455.808","1.8777","0.037554","87.1"
"2.91323","457.371","1.8858","0.037716","87.4"
"2.92315","458.445","1.8904","0.037808","87.7"
"2.93326","460.079","1.8975","0.03795","88"
"2.94323","461.209","1.9065","0.03813","88.3"
"2.95319","462.387","1.9111","0.038222","88.6"
"2.96325","463.829","1.9202","0.038404","88.9"
"2.97318","465.066","1.9269","0.038538","89.2"
"2.98324","466.292","1.9334","0.038668","89.5"
"2.9932","467.687","1.9408","0.038816","89.8"
"3.00322","468.94","1.9485","0.03897","90.1"
"3.01323","470.223","1.9546","0.039092","90.4"
"3.0232","471.52","1.9625","0.03925","90.7"
"3.03326","472.789","1.9704","0.039408","91"
"3.04318","473.948","1.9784","0.039568","91.3"
"3.05324","475.306","1.9839","0.039678","91.6"
"3.0632","476.517","1.9925","0.03985","91.9"
"3.07322","477.894","1.9992","0.039984","92.2"
"3.08318","479.167","2.2899","0.045798","92.5"
"3.09324","480.299","2.2967","0.045934","92.8"
"3.10321","481.576","2.306","0.04612","93.1"
"3.11313","482.867","2.3118","0.046236","93.4"
"3.12324","484.102","2.3196","0.046392","93.7"
"3.1332","485.293","2.3253","0.046506","94"
"3.14322","486.575","2.3346","0.046692","94.3"
"3.15319","488.046","2.3371","0.046742","94.6"
"3.1632","489.042","2.3476","0.046952","94.9"
"3.17326","490.3","2.3539","0.047078","95.2"
"3.18318","491.503","2.3594","0.047188","95.5"
"3.19324","492.856","2.3664","0.047328","95.8"
"3.20316","494.08","2.3737","0.047474","96.1"
"3.21322","495.337","2.3797","0.047594","96.4"
"3.22323","496.437","2.3893","0.047786","96.7"
"3.23315","497.487","2.3953","0.047906","97"
"3.24326","498.812","2.4036","0.048072","97.3"
"3.25318","500.096","2.4085","0.04817","97.6"
"3.26324","501.178","2.4155","0.04831","97.9"
"3.27316","502.393","2.4248","0.048496","98.2"
"3.28327","503.755","2.4313","0.048626","98.5"
"3.29323","504.927","2.4368","0.048736","98.8"
"3.30316","506.007","2.4448","0.048896","99.1"
"3.31326","507.587","2.448","0.04896","99.4"
"3.32323","508.53","2.4592","0.049184","99.7"
"3.33324","509.368","2.4616","0.049232","100"
"3.34316","510.3","2.4674","0.049348","100.3"
"3.35322","511.502","2.4744","0.049488","100.6"
"3.36324","512.603","2.4826","0.049652","100.9"
"3.3732","513.668","2.4889","0.049778","101.2"
"3.38322","515.11","2.4949","0.049898","101.5"
"3.39318","516.195","2.5031","0.050062","101.8"
"3.40324","517.288","2.5122","0.050244","102.1"
"3.41321","518.596","2.5169","0.050338","102.4"
"3.42322","519.676","2.5233","0.050466","102.7"
"3.43324","520.76","2.5304","0.050608","103"
"3.4432","521.973","2.5377","0.050754","103.3"
"3.45322","522.917","2.5451","0.050902","103.6"
"3.46314","524.341","2.5531","0.051062","103.9"
"3.47329","525.44","2.556","0.05112","104.2"
"3.48317","526.706","2.5639","0.051278","104.5"
"3.49318","515.455","2.5708","0.051416","104.8"
"3.50324","516.712","2.6544","0.053088","105.1"
"3.51321","517.839","2.6565","0.05313","105.4"
"3.52327","518.949","2.6688","0.053376","105.7"
"3.53319","520.093","2.6733","0.053466","106"
"3.54325","521.187","2.6794","0.053588","106.3"
"3.55321","522.507","2.686","0.05372","106.6"
"3.56323","523.449","2.6943","0.053886","106.9"
"3.57319","524.672","2.6982","0.053964","107.2"
"3.58316","525.692","2.7057","0.054114","107.5"
"3.59322","526.64","2.7128","0.054256","107.8"
"3.60319","528.055","2.7181","0.054362","108.1"
"3.6132","529.104","2.7249","0.054498","108.4"
"3.62322","529.949","2.732","0.05464","108.7"
"3.63323","531.151","2.7406","0.054812","109"
"3.64324","532.305","2.7454","0.054908","109.3"
"3.65316","533.392","2.7516","0.055032","109.6"
"3.66332","534.561","2.7605","0.05521","109.9"
"3.67319","535.352","2.7641","0.055282","110.2"
"3.6832","536.812","2.7738","0.055476","110.5"
"3.69317","537.87","2.7812","0.055624","110.8"
"3.70323","539.016","2.7872","0.055744","111.1"
"3.7132","540.034","2.7937","0.055874","111.4"
"3.72316","541.172","2.8009","0.056018","111.7"
"3.73327","542.092","2.807","0.05614","112"
"3.74319","543.231","2.8121","0.056242","112.3"
"3.75325","544.415","2.8208","0.056416","112.6"
"3.76317","545.338","2.8283","0.056566","112.9"
"3.77323","546.316","2.8323","0.056646","113.2"
"3.78325","547.629","2.8401","0.056802","113.5"
"3.79321","548.599","2.8485","0.05697","113.8"
"3.80323","549.498","2.8516","0.057032","114.1"
"3.81319","550.804","2.8591","0.057182","114.4"
"3.82325","551.957","2.8701","0.057402","114.7"
"3.83317","552.876","2.8749","0.057498","115"
"3.84319","553.735","2.8815","0.05763","115.3"
"3.85325","555.007","2.8899","0.057798","115.6"
"3.86317","556.042","2.8979","0.057958","115.9"
"3.87323","557.043","2.9025","0.05805","116.2"
"3.88319","558.057","2.9096","0.058192","116.5"
"3.89325","559.031","2.9171","0.058342","116.8"
"3.90317","560.109","2.9217","0.058434","117.1"
"3.91319","561.307","2.929","0.05858","117.4"
"3.9232","562.157","2.9373","0.058746","117.7"
"3.93322","563.212","2.9427","0.058854","118"
"3.94323","564.32","2.9497","0.058994","118.3"
"3.95315","565.347","2.9577","0.059154","118.6"
"3.96321","566.234","2.9655","0.05931","118.9"
"3.97322","567.253","2.968","0.05936","119.2"
"3.98324","568.242","2.9764","0.059528","119.5"
"3.9932","569.382","2.9851","0.059702","119.8"
"4.00317","570.335","2.991","0.05982","120.1"
"4.01328","571.286","2.9981","0.059962","120.4"
"4.02315","572.289","3.0068","0.060136","120.7"
"4.03321","573.509","3.0114","0.060228","121"
"4.04322","574.169","3.0168","0.060336","121.3"
"4.05319","575.254","3.0256","0.060512","121.6"
"4.0632","576.333","3.0336","0.060616","121.9"
"4.07317","577.315","3.0413","0.060826","122.2"
"4.08328","578.254","3.0447","0.060894","122.5"
"4.09315","579.131","3.0528","0.061056","122.8"
"4.10321","579.933","3.0578","0.061156","123.1"
"4.11323","581.159","3.0652","0.061304","123.4"
"4.12324","582.075","3.0746","0.061492","123.7"
"4.13321","582.899","3.0776","0.061552","124"
"4.14317","584.019","3.0859","0.061718","124.3"
"4.15323","585.095","3.094","0.06188","124.6"
"4.1632","585.937","3.0979","0.061958","124.9"
"4.17326","586.805","3.1078","0.062156","125.2"
"4.18318","587.995","3.1122","0.062244","125.5"
"4.19319","588.656","3.1217","0.062434","125.8"
"4.20325","589.635","3.1272","0.062544","126.1"
"4.21317","590.467","3.1349","0.062698","126.4"
"4.22323","591.585","3.1425","0.06285","126.7"
"4.2332","592.548","3.145","0.0629","127"
"4.24326","593.667","3.1538","0.063076","127.3"
"4.25318","594.366","3.1623","0.063246","127.6"
"4.2632","595.349","3.1666","0.063332","127.9"
"4.27325","596.105","3.1745","0.06349","128.2"
"4.28318","597.187","3.1813","0.063626","128.5"
"4.29324","598.01","3.1871","0.063742","128.8"
"4.3032","598.997","3.1941","0.063882","129.1"
"4.31326","599.686","3.2024","0.064048","129.4"
"4.32323","600.718","3.2105","0.06421","129.7"
"4.3332","601.735","3.2148","0.064296","130"
"4.34321","602.795","3.2231","0.064462","130.3"
"4.35318","603.496","3.2309","0.064618","130.6"
"4.36324","604.334","3.2354","0.064708","130.9"
"4.37316","605.294","3.2429","0.064858","131.2"
"4.38322","605.872","3.2504","0.065008","131.5"
"4.39323","606.916","3.2551","0.065102","131.8"
"4.4032","608.04","3.2631","0.065262","132.1"
"4.41321","608.9","3.2715","0.06543","132.4"
"4.42318","609.943","3.2786","0.065572","132.7"
"4.43324","610.711","3.2832","0.065664","133"
"4.44316","611.519","3.2907","0.065814","133.3"
"4.45322","612.475","3.2987","0.065974","133.6"
"4.46323","613.32","3.3021","0.066042","133.9"
"4.4732","614.148","3.3109","0.066218","134.2"
"4.48321","614.994","3.3173","0.066346","134.5"
"4.49318","615.734","3.3237","0.066474","134.8"
"4.50324","616.914","3.3306","0.066612","135.1"
"4.51316","617.534","3.3385","0.06677","135.4"
"4.52322","618.605","3.347","0.06694","135.7"
"4.53319","619.407","3.3537","0.067074","136"
"4.5432","620.056","3.3584","0.067168","136.3"
"4.55326","621.081","3.3671","0.067342","136.6"
"4.56313","621.844","3.3716","0.067432","136.9"
"4.57324","622.748","3.3787","0.067574","137.2"
"4.58321","623.408","3.3887","0.067774","137.5"
"4.59322","624.493","3.3922","0.067844","137.8"
"4.60319","625.16","3.3986","0.067972","138.1"
"4.6132","626.05","3.4064","0.068128","138.4"
"4.62326","626.812","3.413","0.06826","138.7"
"4.63318","627.714","3.4196","0.068392","139"
"4.6432","628.303","3.4266","0.068532","139.3"
"4.65321","629.371","3.4336","0.068672","139.6"
"4.66322","630.013","3.4393","0.068786","139.9"
"4.67319","630.976","3.4483","0.068966","140.2"
"4.6832","631.851","3.4542","0.069084","140.5"
"4.69326","632.666","3.4611","0.069222","140.8"
"4.70314","633.306","3.4681","0.069362","141.1"
"4.71324","634.254","3.4744","0.069488","141.4"
"4.72316","634.903","3.4805","0.06961","141.7"
"4.73322","635.741","3.489","0.06978","142"
"4.74324","636.748","3.496","0.06992","142.3"
"4.75316","637.281","3.5008","0.070016","142.6"
"4.76327","638.084","3.509","0.07018","142.9"
"4.77323","639.051","3.515","0.0703","143.2"
"4.78325","639.603","3.5246","0.070492","143.5"
"4.79317","640.545","3.5278","0.070556","143.8"
"4.80323","641.302","3.5355","0.07071","144.1"
"4.81324","642.166","3.5423","0.070846","144.4"
"4.82321","642.744","3.5471","0.070942","144.7"
"4.83322","643.688","3.5567","0.071134","145"
"4.84319","644.484","3.564","0.07128","145.3"
"4.85325","645.31","3.5679","0.071358","145.6"
"4.86321","645.965","3.5757","0.071514","145.9"
"4.87323","646.964","3.5832","0.071664","146.2"
"4.88324","647.284","3.5928","0.071856","146.5"
"4.89316","648.171","3.5982","0.071964","146.8"
"4.90327","649.086","3.6063","0.072126","147.1"
"4.91314","649.827","3.612","0.07224","147.4"
"4.92325","650.484","3.6166","0.072332","147.7"
"4.93322","651.276","3.625","0.0725","148"
"4.94318","651.957","3.6318","0.072636","148.3"
"4.9532","652.738","3.6369","0.072738","148.6"
"4.96321","653.339","3.6435","0.07287","148.9"
"4.97327","654.298","3.6501","0.073002","149.2"
"4.98314","654.824","3.6561","0.073122","149.5"
"4.99325","655.761","3.6629","0.073258","149.8"
"5.00326","656.233","3.6704","0.073408","150.1"
"5.01323","657.108","3.6778","0.073556","150.4"
"5.0232","657.635","3.6838","0.073676","150.7"
"5.03321","658.334","3.6927","0.073854","151"
"5.04322","659.212","3.6994","0.073988","151.3"
"5.05314","659.978","3.7028","0.074056","151.6"
"5.06325","660.673","3.7112","0.074224","151.9"
"5.07322","661.236","3.7184","0.074368","152.2"
"5.08319","661.986","3.7242","0.074484","152.5"
"5.09325","662.571","3.7289","0.074578","152.8"
"5.10317","663.376","3.7389","0.074778","153.1"
"5.11327","664.291","3.7455","0.07491","153.4"
"5.12315","665.039","3.75","0.075","153.7"
"5.13325","665.648","3.7558","0.075116","154"
"5.14317","666.324","3.7665","0.07533","154.3"
"5.15323","666.864","3.7706","0.075412","154.6"
"5.16325","667.535","3.7763","0.075526","154.9"
"5.17317","668.151","3.7847","0.075694","155.2"
"5.18323","668.909","3.79","0.0758","155.5"
"5.19319","669.435","3.7994","0.075988","155.8"
"5.20325","670.184","3.8051","0.076102","156.1"
"5.21317","670.963","3.8105","0.07621","156.4"
"5.22323","671.527","3.8185","0.07637","156.7"
"5.23325","672.357","3.8262","0.076524","157"
"5.24322","672.597","3.8331","0.076662","157.3"
"5.25323","673.346","3.8374","0.076748","157.6"
"5.26315","674.257","3.8455","0.07691","157.9"
"5.27321","674.88","3.8543","0.077086","158.2"
"5.28322","675.549","3.8586","0.077172","158.5"
"5.29319","676.229","3.8638","0.077276","158.8"
"5.30325","677.018","3.874","0.07748","159.1"
"5.31317","677.562","3.8784","0.077568","159.4"
"5.32323","678.07","3.8875","0.07775","159.7"
"5.33315","678.863","3.8923","0.077846","160"
"5.34326","679.516","3.9005","0.07801","160.3"
"5.35322","680.142","3.9056","0.078112","160.6"
"5.36319","680.75","3.9133","0.078266","160.9"
"5.37325","681.607","3.922","0.07844","161.2"
"5.38322","681.875","3.9264","0.078528","161.5"
"5.39323","682.656","3.9354","0.078708","161.8"
"5.40315","683.175","3.9414","0.078828","162.1"
"5.41326","683.838","3.9472","0.078944","162.4"
"5.42318","684.563","3.955","0.0791","162.7"
"5.43319","685.019","3.9591","0.079182","163"
"5.44325","685.752","3.9649","0.079298","163.3"
"5.45317","686.349","3.9734","0.079468","163.6"
"5.46323","686.914","3.9792","0.079584","163.9"
"5.4732","687.533","3.9862","0.079724","164.2"
"5.48326","688.123","3.9934","0.079868","164.5"
"5.49318","688.892","4.0005","0.08001","164.8"
"5.50319","689.453","4.0076","0.080152","165.1"
"5.51325","690.11","4.0138","0.080276","165.4"
"5.52317","690.366","4.0203","0.080406","165.7"
"5.53323","691.136","4.0269","0.080538","166"
"5.5432","691.623","4.0319","0.080638","166.3"
"5.55321","692.461","4.0384","0.080768","166.6"
"5.56318","693.01","4.0466","0.080932","166.9"
"5.57324","693.602","4.0553","0.081106","167.2"
"5.58326","694.121","4.0598","0.081196","167.5"
"5.59313","694.893","4.0691","0.081382","167.8"
"5.60324","695.293","4.0723","0.081446","168.1"
"5.6132","695.69","4.0803","0.081606","168.4"
"5.62322","696.444","4.0867","0.081734","168.7"
"5.63318","697.133","4.0946","0.081892","169"
"5.6432","697.632","4.0996","0.081992","169.3"
"5.65321","698.215","4.1097","0.082194","169.6"
"5.66318","698.575","4.115","0.0823","169.9"
"5.67324","699.422","4.1184","0.082368","170.2"
"5.6832","699.622","4.1276","0.082552","170.5"
"5.69322","700.407","4.1344","0.082688","170.8"
"5.70323","700.781","4.1413","0.082826","171.1"
"5.7132","701.371","4.1483","0.082966","171.4"
"5.72326","701.868","4.1537","0.083074","171.7"
"5.73318","702.57","4.1633","0.083266","172"
"5.74319","703.239","4.166","0.08332","172.3"
"5.75316","703.917","4.1732","0.083464","172.6"
"5.76327","704.147","4.1806","0.083612","172.9"
"5.77319","704.833","4.1855","0.08371","173.2"
"5.78315","705.096","4.1945","0.08389","173.5"
"5.79326","705.83","4.1995","0.08399","173.8"
"5.80318","706.321","4.2086","0.084096","174.1"
"5.81324","706.92","4.2146","0.084292","174.4"
"5.82316","707.618","4.2198","0.084396","174.7"
"5.83322","708.119","4.2287","0.084574","175"
"5.84323","708.251","4.2334","0.084668","175.3"
"5.8532","709.18","4.2418","0.084836","175.6"
"5.86321","709.531","4.2483","0.084966","175.9"
"5.87318","709.909","4.2538","0.085076","176.2"
"5.88324","710.568","4.2601","0.085202","176.5"
"5.89321","711.203","4.2682","0.085364","176.8"
"5.90322","711.917","4.2735","0.08547","177.1"
"5.91324","712.35","4.2801","0.085602","177.4"
"5.9232","712.783","4.2869","0.085738","177.7"
"5.93322","713.409","4.2944","0.085888","178"
"5.94314","713.886","4.2993","0.085986","178.3"
"5.95329","714.193","4.307","0.08614","178.6"
"5.96316","714.721","4.3144","0.086288","178.9"
"5.97318","715.262","4.3189","0.086378","179.2"
"5.98324","715.641","4.3261","0.086522","179.5"
"5.9932","716.218","4.3344","0.086688","179.8"
"6.00326","716.71","4.3397","0.086794","180.1"
"6.01318","717.114","4.346","0.08692","180.4"
"6.02324","717.896","4.3552","0.087104","180.7"
"6.03321","718.158","4.36","0.0872","181"
"6.04323","718.876","4.3661","0.087322","181.3"
"6.05324","718.986","4.3737","0.087474","181.6"
"6.06321","719.333","4.3825","0.08765","181.9"
"6.07327","720.033","4.3864","0.087728","182.2"
"6.08319","720.381","4.3937","0.087874","182.5"
"6.0932","720.875","4.4017","0.088034","182.8"
"6.10317","721.457","4.406","0.08812","183.1"
"6.11323","721.84","4.412","0.08824","183.4"
"6.12319","722.191","4.4216","0.088432","183.7"
"6.13316","722.824","4.4254","0.088508","184"
"6.14331","723.339","4.4335","0.08867","184.3"
"6.15319","723.717","4.4399","0.088798","184.6"
"6.16325","724.076","4.4499","0.088998","184.9"
"6.17317","724.53","4.4539","0.089078","185.2"
"6.18323","725.246","4.4587","0.089174","185.5"
"6.1932","725.66","4.4662","0.089324","185.8"
"6.20316","726.214","4.4726","0.089452","186.1"
"6.21327","726.638","4.4797","0.089594","186.4"
"6.22319","727.087","4.4854","0.089708","186.7"
"6.23325","727.583","4.4925","0.08985","187"
"6.24317","728.093","4.4974","0.089948","187.3"
"6.25318","728.378","4.5057","0.090114","187.6"
"6.26324","729.019","4.5091","0.090182","187.9"
"6.27321","729.282","4.5174","0.090348","188.2"
"6.28322","730.022","4.5281","0.090562","188.5"
"6.29319","730.492","4.535","0.090666","188.8"
"6.30325","730.744","4.539","0.09078","189.1"
"6.31317","731.354","4.5464","0.090928","189.4"
"6.32318","731.417","4.5535","0.09107","189.7"
"6.33324","731.876","4.5589","0.091178","190"
"6.34316","732.62","4.564","0.09128","190.3"
"6.35322","732.786","4.5721","0.091442","190.6"
"6.36319","733.081","4.5781","0.091562","190.9"
"6.3733","733.583","4.5851","0.091702","191.2"
"6.38317","734.063","4.5929","0.091858","191.5"
"6.39319","734.416","4.5994","0.091988","191.8"
"6.40325","734.937","4.6051","0.092102","192.1"
"6.41321","735.315","4.6101","0.092202","192.4"
"6.42323","735.786","4.6176","0.092352","192.7"
"6.43319","736.128","4.6229","0.092458","193"
"6.44321","736.164","4.6309","0.092618","193.3"
"6.45322","736.757","4.6391","0.092782","193.6"
"6.46323","737.225","4.6451","0.092902","193.9"
"6.4732","737.56","4.65","0.093","194.2"
"6.48317","738.196","4.6587","0.093174","194.5"
"6.49327","738.328","4.6628","0.093256","194.8"
"6.50319","739.02","4.6703","0.093406","195.1"
"6.51321","739.246","4.6772","0.093544","195.4"
"6.52322","739.691","4.6839","0.093678","195.7"
"6.53319","740.194","4.69","0.0938","196"
"6.5432","740.671","4.6986","0.093972","196.3"
"6.55317","740.833","4.7052","0.094104","196.6"
"6.56328","741.192","4.7105","0.09421","196.9"
"6.57315","741.74","4.7151","0.094302","197.2"
"6.58321","742.055","4.7242","0.094484","197.5"
"6.59322","742.592","4.7296","0.094592","197.8"
"6.60324","743.116","4.7365","0.09473","198.1"
"6.61325","743.518","4.7446","0.094892","198.4"
"6.62317","743.371","4.752","0.094958","198.7"
"6.63323","743.849","4.7556","0.095112","199"
"6.6432","744.284","4.7643","0.095286","199.3"
"6.65326","744.575","4.7714","0.095428","199.6"
"6.66318","745.307","4.7755","0.09551","199.9"
"6.67319","745.414","4.7824","0.095648","200.2"
"6.6833","745.729","4.7903","0.095806","200.5"
"6.69317","746.135","4.7941","0.095882","200.8"
"6.70323","746.398","4.8012","0.096024","201.1"
"6.7132","746.977","4.8088","0.096176","201.4"
"6.72321","747.312","4.8114","0.096228","201.7"
"6.73318","747.767","4.8204","0.096408","202"
"6.74319","748.106","4.8271","0.096542","202.3"
"6.75325","748.567","4.8354","0.096708","202.6"
"6.76317","748.777","4.8392","0.096784","202.9"
"6.77323","749.04","4.8474","0.096948","203.2"
"6.7832","749.346","4.8537","0.097074","203.5"
"6.79321","749.694","4.8586","0.097172","203.8"
"6.80318","750.071","4.8669","0.097338","204.1"
"6.81319","750.364","4.8762","0.097524","204.4"
"6.82325","750.871","4.8806","0.097612","204.7"
"6.83322","751.181","4.8867","0.097734","205"
"6.84328","751.667","4.8935","0.09787","205.3"
"6.85316","752.007","4.8967","0.097934","205.6"
"6.86322","752.342","4.9059","0.098118","205.9"
"6.87323","752.75","4.9112","0.098224","206.2"
"6.8832","752.817","4.9186","0.098372","206.5"
"6.89321","753.261","4.9232","0.098464","206.8"
"6.90318","753.63","4.9321","0.098642","207.1"
"6.91328","753.821","4.9394","0.098788","207.4"
"6.92316","754.032","4.9428","0.098856","207.7"
"6.93322","754.536","4.9509","0.099018","208"
"6.94323","754.745","4.9586","0.099172","208.3"
"6.9532","754.939","4.965","0.0993","208.6"
"6.96321","755.253","4.9695","0.09939","208.9"
"6.97318","755.694","4.9774","0.099548","209.2"
"6.98328","756.115","4.9827","0.099654","209.5"
"6.99316","756.261","4.9906","0.099812","209.8"
"7.00322","756.809","4.9959","0.099918","210.1"
"7.01318","757.118","5.0037","0.100074","210.4"
"7.0232","757.322","5.008","0.10016","210.7"
"7.03326","757.508","5.0161","0.100322","211"
"7.04313","757.878","5.0216","0.100432","211.3"
"7.05324","758.277","5.0253","0.100506","211.6"
"7.06321","758.427","5.0331","0.100662","211.9"
"7.07322","758.798","5.0395","0.10079","212.2"
"7.08319","758.824","5.0456","0.100912","212.5"
"7.0932","759.509","5.0538","0.101076","212.8"
"7.10326","759.814","5.0609","0.101218","213.1"
"7.11318","759.901","5.0684","0.101368","213.4"
"7.12324","760.165","5.0719","0.101438","213.7"
"7.13321","760.415","5.0785","0.10157","214"
"7.14322","760.84","5.0853","0.101706","214.3"
"7.15323","761.006","5.0903","0.101806","214.6"
"7.1632","761.424","5.0966","0.101932","214.9"
"7.17326","761.81","5.1073","0.102146","215.2"
"7.18318","762.045","5.1095","0.10219","215.5"
"7.19324","762.01","5.1222","0.102444","215.8"
"7.20316","762.494","5.1293","0.102586","216.1"
"7.21322","762.861","5.1355","0.10271","216.4"
"7.22324","763.172","5.1408","0.102816","216.7"
"7.23316","763.154","5.1497","0.102994","217"
"7.24322","763.683","5.1569","0.103138","217.3"
"7.25318","763.97","5.1682","0.103364","217.6"
"7.26324","764.162","5.1714","0.103428","217.9"
"7.27316","764.364","5.1775","0.10355","218.2"
"7.28322","764.936","5.188","0.10376","218.5"
"7.29324","764.994","5.1879","0.103758","218.8"
"7.3032","765.292","5.1968","0.103936","219.1"
"7.31322","765.598","5.2046","0.104038","219.4"
"7.32318","765.853","5.2127","0.104254","219.7"
"7.33325","766.163","5.2238","0.104476","220"
"7.34317","766.358","5.2285","0.10457","220.3"
"7.35323","766.779","5.2368","0.104736","220.6"
"7.36324","766.989","5.2405","0.10481","220.9"
"7.37321","767.04","5.2546","0.105092","221.2"
"7.38327","767.311","5.2565","0.10513","221.5"
"7.39319","767.432","5.2635","0.10527","221.8"
"7.40325","767.838","5.2753","0.105506","222.1"
"7.41321","768.01","5.2736","0.105472","222.4"
"7.42318","768.477","5.2917","0.105834","222.7"
"7.43319","768.449","5.293","0.10586","223"
"7.44321","768.859","5.3061","0.106104","223.3"
"7.45327","768.835","5.3109","0.106218","223.6"
"7.46314","769.309","5.3153","0.106306","223.9"
"7.4732","769.501","5.3244","0.106488","224.2"
"7.48321","769.749","5.3298","0.106596","224.5"
"7.49323","769.674","5.3347","0.106694","224.8"
"7.5032","770.186","5.3467","0.106934","225.1"
"7.51321","770.386","5.3527","0.107054","225.4"
"7.52327","770.732","5.36","0.1072","225.7"
"7.53319","770.824","5.3681","0.107362","226"
"7.54325","771.021","5.3712","0.107424","226.3"
"7.55317","771.28","5.3823","0.107646","226.6"
"7.56318","771.513","5.3908","0.107816","226.9"
"7.57324","771.69","5.3966","0.107932","227.2"
"7.58316","772.074","5.4006","0.108012","227.5"
"7.59327","772.213","5.4088","0.108176","227.8"
"7.60319","772.355","5.4199","0.108398","228.1"
"7.61325","772.684","5.4258","0.108516","228.4"
"7.62317","773.05","5.4317","0.108634","228.7"
"7.63323","773.23","5.4386","0.108772","229"
"7.64324","773.406","5.4476","0.108952","229.3"
"7.65312","773.727","5.4539","0.109078","229.6"
"7.66323","773.786","5.4619","0.109238","229.9"
"7.67324","774.112","5.465","0.1093","230.2"
"7.68321","774.276","5.4727","0.109454","230.5"
"7.69317","774.656","5.4801","0.109602","230.8"
"7.70323","774.509","5.4901","0.109802","231.1"
"7.71325","774.965","5.4985","0.10997","231.4"
"7.72317","774.991","5.504","0.11008","231.7"
"7.73327","775.123","5.5116","0.110232","232"
"7.74319","775.511","5.5113","0.110226","232.3"
"7.75321","775.671","5.5218","0.110436","232.6"
"7.76322","775.754","5.5264","0.110528","232.9"
"7.77319","775.951","5.5344","0.110688","233.2"
"7.78325","776.18","5.5447","0.110894","233.5"
"7.79317","776.265","5.5517","0.111034","233.8"
"7.80323","776.594","5.5601","0.111202","234.1"
"7.81319","776.505","5.566","0.11132","234.4"
"7.82325","776.835","5.5728","0.111456","234.7"
"7.83322","777.056","5.581","0.11162","235"
"7.84319","777.3","5.5873","0.111746","235.3"
"7.8532","777.149","5.5964","0.111928","235.6"
"7.86322","777.449","5.6032","0.112064","235.9"
"7.87323","777.879","5.6108","0.112216","236.2"
"7.88315","777.968","5.6144","0.112288","236.5"
"7.89321","777.975","5.6232","0.112464","236.8"
"7.90322","778.186","5.6283","0.112566","237.1"
"7.91319","778.619","5.6383","0.112766","237.4"
"7.92325","778.431","5.6455","0.11291","237.7"
"7.93317","778.788","5.6499","0.112998","238"
"7.94323","778.794","5.6582","0.113164","238.3"
"7.9532","778.912","5.6638","0.113276","238.6"
"7.96326","779.084","5.6745","0.11349","238.9"
"7.97322","779.358","5.6787","0.113574","239.2"
"7.98319","779.338","5.6888","0.113776","239.5"
"7.99325","779.375","5.6945","0.11389","239.8"
"8.00317","779.535","5.7012","0.114024","240.1"
"8.01328","779.979","5.7093","0.114186","240.4"
"8.02315","779.791","5.7167","0.114334","240.7"
"8.03321","780.081","5.7233","0.114466","241"
"8.04318","780.35","5.7303","0.114606","241.3"
"8.05324","780.294","5.7395","0.11479","241.6"
"8.06325","780.584","5.7464","0.114928","241.9"
"8.07317","780.588","5.7506","0.115012","242.2"
"8.08328","780.599","5.7578","0.115156","242.5"
"8.0932","780.945","5.7657","0.115314","242.8"
"8.10321","781.039","5.7721","0.115442","243.1"
"8.11318","780.969","5.7786","0.115572","243.4"
"8.12319","781.133","5.7915","0.11583","243.7"
"8.13325","781.302","5.7987","0.11587","244"
"8.13968","74.1215","5.7998","0.115996","244.191"