File: experimental_data/tensile_specimen_test_data/tensile_test_data/20250312/original_data/SSS 12 03-12-25 16 18 12 下午/数采：横梁, … - (实时值).csv
"文件路径: C:\Users\Lenovo\Desktop\Wayne\20250312\原始数据\SSS 12 03-12-25 16 18 12 下午\数采：横梁, … - (实时值).csv   "
"试验: 拉伸试验（UNIVER）      视频引伸计采集变形-W 1"
"试验运行: SSS 12"
"日期: 2025/3/12 14:44:29"
""
""
"横梁 ","力 ","视频引伸计变形 ","应变 ","时间 "
"mm","N","mm","mm/mm","sec"
"0.00246845","-67.3073","-0.0004","-8e-06","0.1"
"0.0396815","97.1536","0.0729","0.001458","1.2"
"0.0763821","285.483","0.129","0.00258","2.3"
"0.113083","474.36","0.1769","0.003538","3.4"
"0.14969","657.896","0.217","0.00434","4.5"
"0.186344","834.319","0.2536","0.005072","5.6"
"0.222999","1004.64","0.2867","0.005734","6.7"
"0.259699","1168.87","0.3179","0.006358","7.8"
"0.2964","1325.07","0.3468","0.006936","8.9"
"0.333008","1473.79","0.3766","0.007532","10"
"0.369662","1612.22","0.4039","0.008078","11.1"
"0.406362","1742.45","0.4332","0.008664","12.2"
"0.443063","1861.11","0.4592","0.009184","13.3"
"0.479671","1967.95","0.4854","0.009708","14.4"
"0.516371","2060.45","0.5146","0.010292","15.5"
"0.553072","2149.47","0.5382","0.010764","16.6"
"0.589773","2229.78","0.5642","0.011284","17.7"
"0.62638","2301.92","0.5912","0.011824","18.8"
"0.662988","2355.53","0.6264","0.012528","19.9"
"0.699688","2420.84","0.6507","0.013014","21"
"0.736389","2476.65","0.6768","0.013536","22.1"
"0.77309","2526.69","0.7024","0.014048","23.2"
"0.809744","2572.52","0.727","0.01454","24.3"
"0.846351","2613.67","0.7528","0.015056","25.4"
"0.883099","2651.82","0.7796","0.015592","26.5"
"0.919753","2686.67","0.8032","0.016064","27.6"
"0.95636","2717.58","0.8301","0.016602","28.7"
"0.993014","2746.92","0.8526","0.017052","29.8"
"1.02972","2759.09","0.9058","0.018116","30.9"
"1.06642","2788.77","0.9309","0.018618","32"
"1.10302","2812.96","0.9565","0.01913","33.1"
"1.13968","2835.38","0.9808","0.019616","34.2"
"1.17638","2856.67","1.0077","0.020154","35.3"
"1.21303","2876.45","1.033","0.02066","36.4"
"1.24973","2895.36","1.0594","0.021188","37.5"
"1.28634","2913.2","1.0828","0.021656","38.6"
"1.32299","2930.21","1.1093","0.022186","39.7"
"1.35974","2947.02","1.1346","0.022692","40.8"
"1.39635","2962.69","1.1603","0.023206","41.9"
"1.433","2977.36","1.1863","0.023726","43"
"1.4697","2991.75","1.2125","0.02425","44.1"
"1.5064","3006.08","1.2376","0.024752","45.2"
"1.54311","3019.4","1.2623","0.025246","46.3"
"1.57967","3032.02","1.2875","0.02575","47.4"
"1.61632","3043.91","1.3143","0.026286","48.5"
"1.65302","3056.81","1.3389","0.026778","49.6"
"1.68972","3068.69","1.3646","0.027292","50.7"
"1.72642","3080.7","1.3923","0.027846","51.8"
"1.76303","3091.49","1.4182","0.028364","52.9"
"1.79973","3092.12","1.4322","0.028644","54"
"1.83643","3107.68","1.4566","0.029132","55.1"
"1.87309","3118.92","1.4813","0.029626","56.2"
"1.90969","3129.75","1.5052","0.030104","57.3"
"1.94635","3139.87","1.53","0.0306","58.4"
"1.98309","3150.42","1.5552","0.031104","59.5"
"2.01975","3159.96","1.5814","0.031628","60.6"
"2.05636","3169.17","1.6086","0.032172","61.7"
"2.09301","3178.73","1.6334","0.032668","62.8"
"2.12971","3187.82","1.6584","0.033168","63.9"
"2.16641","3197.27","1.6857","0.033714","65"
"2.20302","3205.77","1.7089","0.034178","66.1"
"2.23967","3214.14","1.7353","0.034706","67.2"
"2.27637","3223.4","1.7614","0.035228","68.3"
"2.31303","3230.85","1.7862","0.035724","69.4"
"2.34973","3239.56","1.8123","0.036246","70.5"
"2.38634","3247.82","1.8395","0.03679","71.6"
"2.42304","3256.29","1.8649","0.037298","72.7"
"2.45974","3264.75","1.8898","0.037796","73.8"
"2.49639","3272.89","1.9176","0.038352","74.9"
"2.533","3280.39","1.9398","0.038796","76"
"2.56965","3288.18","1.9664","0.039328","77.1"
"2.6064","3296.26","1.993","0.03986","78.2"
"2.64306","3304.46","2.1903","0.043806","79.3"
"2.67971","3311.39","2.2246","0.044492","80.4"
"2.71641","3319.18","2.256","0.04512","81.5"
"2.75306","3326.74","2.2813","0.045626","82.6"
"2.78976","3333.92","2.3096","0.046192","83.7"
"2.82637","3341.44","2.3438","0.046876","84.8"
"2.86298","3348.41","2.3731","0.047462","85.9"
"2.89968","3355.85","2.3997","0.047994","87"
"2.93643","3363.41","2.4313","0.048626","88.1"
"2.97308","3370.01","2.4616","0.049232","89.2"
"3.00964","3376.77","2.4955","0.04991","90.3"
"3.04634","3383.5","2.5214","0.050428","91.4"
"3.08304","3391.09","2.5494","0.050988","92.5"
"3.1197","3397.72","2.5788","0.051576","93.6"
"3.15635","3404","2.6087","0.052174","94.7"
"3.19301","3410.95","2.635","0.0527","95.8"
"3.22971","3417.45","2.6654","0.053308","96.9"
"3.26641","3424.29","2.6978","0.053956","98"
"3.30302","3430.49","2.725","0.0545","99.1"
"3.33967","3437.17","2.7528","0.055056","100.2"
"3.37637","3443.76","2.7864","0.055728","101.3"
"3.41312","3450.3","2.8187","0.056374","102.4"
"3.44973","3456.23","2.8375","0.05675","103.5"
"3.48633","3462.35","2.8713","0.057426","104.6"
"3.52303","3468.87","2.9006","0.058012","105.7"
"3.55973","3475.37","2.9306","0.058612","106.8"
"3.59639","3481.33","2.9595","0.05919","107.9"
"3.63304","3487.56","2.9875","0.05975","109"
"3.6697","3493.86","3.0179","0.060358","110.1"
"3.70644","3499.9","3.0478","0.060956","111.2"
"3.7431","3479.25","3.0591","0.061182","112.3"
"3.77971","3492.43","3.076","0.06152","113.4"
"3.81631","3504.45","3.1007","0.062014","114.5"
"3.85306","3512.72","3.1216","0.062432","115.6"
"3.88976","3519.95","3.1578","0.063156","116.7"
"3.92637","3525.89","3.1791","0.063582","117.8"
"3.96302","3531.59","3.2139","0.064278","118.9"
"3.99968","3537.91","3.2358","0.064716","120"
"4.03638","3543.45","3.2635","0.06527","121.1"
"4.07303","3549.18","3.293","0.065798","122.2"
"4.10964","3554.59","3.3207","0.066414","123.3"
"4.14634","3559.64","3.355","0.0671","124.4"
"4.18309","3565.83","3.382","0.06764","125.5"
"4.21969","3570.97","3.4117","0.068234","126.6"
"4.25635","3575.93","3.4413","0.068826","127.7"
"4.293","3581.39","3.4643","0.069286","128.8"
"4.32975","3586.56","3.4985","0.06997","129.9"
"4.3664","3592.05","3.523","0.07046","131"
"4.40301","3596.57","3.5541","0.071082","132.1"
"4.43967","3602.01","3.5784","0.071568","133.2"
"4.47637","3607.27","3.6166","0.072332","134.3"
"4.51307","3612.43","3.6441","0.072882","135.4"
"4.54972","3617.14","3.6662","0.073324","136.5"
"4.58638","3622.2","3.6995","0.07399","137.6"
"4.62308","3627.47","3.7275","0.07455","138.7"
"4.65978","3632.36","3.7622","0.075244","139.8"
"4.69643","3636.64","3.7811","0.075622","140.9"
"4.73299","3641.36","3.8145","0.07629","142"
"4.76969","3646.2","3.8414","0.076828","143.1"
"4.80639","3650.91","3.8653","0.077306","144.2"
"4.84309","3655.62","3.892","0.07784","145.3"
"4.8797","3660.09","3.9221","0.078442","146.4"
"4.91636","3664.71","3.9516","0.079032","147.5"
"4.95306","3668.91","3.9779","0.079558","148.6"
"4.98976","3674.23","4.0055","0.08011","149.7"
"5.02632","3677.99","4.0315","0.08063","150.8"
"5.06302","3682.31","4.0582","0.081164","151.9"
"5.09972","3686.7","4.0794","0.081588","153"
"5.13642","3691.29","4.1068","0.082136","154.1"
"5.17303","3695.05","4.1383","0.082766","155.2"
"5.20968","3699.22","4.1691","0.083382","156.3"
"5.24638","3703.74","4.183","0.08366","157.4"
"5.28308","3708.05","4.2195","0.08439","158.5"
"5.31978","3712.08","4.2481","0.084962","159.6"
"5.35634","3716.04","4.2696","0.085392","160.7"
"5.393","3719.96","4.296","0.08592","161.8"
"5.42975","3724.34","4.3193","0.086386","162.9"
"5.4664","3728.42","4.3497","0.086994","164"
"5.50305","3732.07","4.3761","0.087522","165.1"
"5.53971","3735.85","4.4049","0.088098","166.2"
"5.57646","3740.26","4.4329","0.088658","167.3"
"5.61311","3744.42","4.4589","0.089178","168.4"
"5.64972","3747.66","4.4847","0.089694","169.5"
"5.68637","3751.26","4.5114","0.090228","170.6"
"5.72303","3755.22","4.5375","0.09075","171.7"
"5.75973","3758.98","4.569","0.09138","172.8"
"5.79643","3762.79","4.5966","0.091932","173.9"
"5.83299","3766.05","4.6218","0.092436","175"
"5.86969","3769.1","4.6509","0.093018","176.1"
"5.90639","3773.43","4.6777","0.093554","177.2"
"5.94304","3776.77","4.706","0.09412","178.3"
"5.97965","3779.87","4.7316","0.094632","179.4"
"6.01631","3783.5","4.7578","0.095156","180.5"
"6.05305","3787.01","4.7853","0.095706","181.6"
"6.08975","3790.43","4.8141","0.096282","182.7"
"6.12636","3793.52","4.8441","0.096882","183.8"
"6.16301","3796.91","4.8712","0.097424","184.9"
"6.19972","3800.15","4.8963","0.097926","186"
"6.23642","3803.8","4.9211","0.098422","187.1"
"6.27302","3806.9","4.9535","0.09907","188.2"
"6.30968","3809.77","4.9774","0.099548","189.3"
"6.34638","3812.99","5.0039","0.100078","190.4"
"6.38308","3816.19","5.0346","0.100692","191.5"
"6.41973","3819.07","5.0584","0.101168","192.6"
"6.45639","3822.18","5.0875","0.10175","193.7"
"6.49304","3825.6","5.1147","0.102294","194.8"
"6.52979","3828.82","5.138","0.10276","195.9"
"6.56644","3831.67","5.1698","0.103396","197"
"6.60305","3834.58","5.1986","0.103972","198.1"
"6.63966","3837.3","5.2209","0.104418","199.2"
"6.67641","3840.23","5.2509","0.105018","200.3"
"6.71306","3843.25","5.2801","0.105602","201.4"
"6.74971","3845.9","5.3067","0.106134","202.5"
"6.78637","3848.77","5.3332","0.106664","203.6"
"6.82302","3851.9","5.358","0.10716","204.7"
"6.85972","3854.2","5.3877","0.107754","205.8"
"6.89638","3856.97","5.4177","0.108354","206.9"
"6.93298","3859.77","5.446","0.10892","208"
"6.96968","3862.16","5.4714","0.109428","209.1"
"7.00639","3865.36","5.4961","0.109922","210.2"
"7.04309","3868.26","5.5245","0.11049","211.3"
"7.07969","3870.45","5.5543","0.111086","212.4"
"7.11635","3872.77","5.5803","0.111606","213.5"
"7.15309","3876.09","5.6071","0.112142","214.6"
"7.1897","3878.23","5.6383","0.112766","215.7"
"7.2264","3880.61","5.6658","0.113316","216.8"
"7.26301","3882.97","5.6893","0.113786","217.9"
"7.29971","3885.57","5.7181","0.114362","219"
"7.33641","3888.33","5.7453","0.114906","220.1"
"7.37307","3891.14","5.7763","0.115526","221.2"
"7.40967","3893.09","5.8041","0.116082","222.3"
"7.44637","3895.65","5.8251","0.116502","223.4"
"7.48312","3898.3","5.8556","0.117112","224.5"
"7.51978","3900.59","5.8857","0.117714","225.6"
"7.55634","3902.7","5.9069","0.118138","226.7"
"7.59304","3905.02","5.9343","0.118686","227.8"
"7.62974","3908.13","5.9627","0.119254","228.9"
"7.66639","3909.72","5.9874","0.119748","230"
"7.70305","3912.3","6.0178","0.120356","231.1"
"7.7397","3914.42","6.0488","0.120976","232.2"
"7.7764","3916.78","6.076","0.12152","233.3"
"7.81306","3918.84","6.1017","0.122034","234.4"
"7.84966","3920.95","6.1324","0.122648","235.5"
"7.88632","3923.31","6.155","0.1231","236.6"
"7.92302","3925.7","6.1818","0.123636","237.7"
"7.95976","3928.25","6.2174","0.124348","238.8"
"7.99637","3930.11","6.2439","0.124878","239.9"
"8.03303","3931.83","6.2707","0.125414","241"
"8.06973","3934.65","6.2967","0.125934","242.1"
"8.10638","3936.82","6.3206","0.126412","243.2"
"8.14308","3938.82","6.3529","0.127058","244.3"
"8.17969","3940.96","6.3729","0.127458","245.4"
"8.21634","3942.81","6.4057","0.128114","246.5"
"8.25309","3945.34","6.4347","0.128694","247.6"
"8.28975","3947.32","6.4616","0.129232","248.7"
"8.32635","3949.35","6.4871","0.129742","249.8"
"8.36301","3951.31","6.517","0.13034","250.9"
"8.39975","3953.49","6.5409","0.130818","252"
"8.43645","3955.45","6.5788","0.131576","253.1"
"8.47306","3956.92","6.5972","0.131944","254.2"
"8.50972","3958.92","6.623","0.13246","255.3"
"8.54632","3960.63","6.651","0.13302","256.4"
"8.58307","3962.79","6.684","0.13368","257.5"
"8.61973","3964.85","6.7084","0.134168","258.6"
"8.65633","3966.59","6.7327","0.134654","259.7"
"8.69303","3968.66","6.7598","0.135196","260.8"
"8.72973","3970.7","6.7962","0.135924","261.9"
"8.76639","3972.49","6.8238","0.136476","263"
"8.803","3974.17","6.8419","0.136838","264.1"
"8.83965","3975.88","6.8692","0.137384","265.2"
"8.8764","3978.11","6.9006","0.138012","266.3"
"8.91305","3979.89","6.9274","0.138548","267.4"
"8.94971","3981.39","6.9502","0.139004","268.5"
"8.98636","3983.12","6.9812","0.139624","269.6"
"9.02306","3985.2","7.0142","0.140284","270.7"
"9.05976","3986.83","7.0364","0.140728","271.8"
"9.09637","3988.46","7.0573","0.141146","272.9"
"9.13302","3989.95","7.0826","0.141652","274"
"9.16972","3991.84","7.1113","0.142226","275.1"
"9.20642","3993.84","7.1386","0.142772","276.2"
"9.24308","3995.51","7.1683","0.143366","277.3"
"9.27969","3996.63","7.194","0.14388","278.4"
"9.31639","3998.71","7.2134","0.144268","279.5"
"9.35309","4000.64","7.2456","0.144912","280.6"
"9.38979","4002.45","7.2655","0.14531","281.7"
"9.4264","4003.79","7.2939","0.145878","282.8"
"9.463","4004.9","7.3144","0.146288","283.9"
"9.4997","4006.95","7.3425","0.14685","285"
"9.5364","4009.2","7.3645","0.14729","286.1"
"9.57301","4010.41","7.3903","0.147806","287.2"
"9.60967","4011.56","7.4111","0.148222","288.3"
"9.64637","4013.67","7.4292","0.148584","289.4"
"9.68307","4015.53","7.4629","0.149258","290.5"
"9.71967","4016.67","7.4842","0.149684","291.6"
"9.75633","4017.84","7.4987","0.149974","292.7"
"9.79298","4019.85","7.5276","0.150552","293.8"
"9.82973","4021.29","7.5546","0.151092","294.9"
"9.86643","4023.19","7.581","0.15162","296"
"9.90304","4024.33","7.6074","0.152148","297.1"
"9.93969","4025.57","7.6378","0.152756","298.2"
"9.97639","4027.72","7.6646","0.153292","299.3"
"10.013","4028.89","7.686","0.15372","300.4"
"10.0497","4030.15","7.7165","0.15433","301.5"
"10.0864","4031.53","7.7434","0.154868","302.6"
"10.1231","4033.33","7.7633","0.155266","303.7"
"10.1598","4034.95","7.7981","0.155962","304.8"
"10.1964","4036.13","7.8182","0.156364","305.9"
"10.233","4037.64","7.8484","0.156968","307"
"10.2697","4039.11","7.8774","0.157548","308.1"
"10.3064","4040.61","7.9004","0.158008","309.2"
"10.3431","4042.26","7.9324","0.158648","310.3"
"10.3797","4043.35","7.9556","0.159112","311.4"
"10.4164","4044.82","7.9866","0.159732","312.5"
"10.453","4046.49","8.0132","0.160264","313.6"
"10.4897","4047.62","8.04","0.1608","314.7"
"10.5263","4048.84","8.0752","0.161504","315.8"
"10.563","4050.2","8.1045","0.16209","316.9"
"10.5997","4052","8.1297","0.162594","318"
"10.6364","4053.3","8.1624","0.163248","319.1"
"10.673","4054.32","8.1779","0.163558","320.2"
"10.7096","4055.52","8.2111","0.164222","321.3"
"10.7464","4057.05","8.2397","0.164794","322.4"
"10.7831","4058.8","8.2678","0.165356","323.5"
"10.8197","4060.01","8.3007","0.166014","324.6"
"10.8564","4061.19","8.3229","0.166458","325.7"
"10.8931","4062.57","8.3524","0.167048","326.8"
"10.9297","4064.03","8.3845","0.16769","327.9"
"10.9664","4065.36","8.411","0.16822","329"
"11.003","4066.3","8.4312","0.168624","330.1"
"11.0397","4068.01","8.4607","0.169214","331.2"
"11.0764","4069.29","8.4904","0.169808","332.3"
"11.1131","4070.78","8.5192","0.170384","333.4"
"11.1497","4071.68","8.5483","0.170966","334.5"
"11.1864","4072.97","8.5722","0.171444","335.6"
"11.2231","4074.66","8.6029","0.172058","336.7"
"11.2598","4076.2","8.6261","0.172522","337.8"
"11.2964","4076.67","8.6526","0.173052","338.9"
"11.333","4078.1","8.6855","0.17371","340"
"11.3697","4079.57","8.7083","0.174166","341.1"
"11.4064","4080.59","8.7358","0.174716","342.2"
"11.443","4081.68","8.7629","0.175258","343.3"
"11.4797","4082.95","8.7932","0.175864","344.4"
"11.5163","4084.16","8.82","0.1764","345.5"
"11.5531","4085.61","8.8508","0.177016","346.6"
"11.5897","4086.84","8.8734","0.177468","347.7"
"11.6263","4087.6","8.9039","0.178078","348.8"
"11.663","4088.69","8.9281","0.178562","349.9"
"11.6997","4090.58","8.9516","0.179032","351"
"11.7364","4091.54","8.9785","0.17957","352.1"
"11.7731","4092.64","9.0133","0.180266","353.2"
"11.8097","4093.83","9.0358","0.180716","354.3"
"11.8464","4095.07","9.0593","0.181186","355.4"
"11.8831","4096.21","9.0949","0.181898","356.5"
"11.9197","4097.24","9.1136","0.182272","357.6"
"11.9563","4098.21","9.1407","0.182814","358.7"
"11.993","4099.46","9.1673","0.183346","359.8"
"12.0298","4101.19","9.1991","0.183982","360.9"
"12.0664","4102.35","9.2257","0.184514","362"
"12.103","4102.99","9.2501","0.185002","363.1"
"12.1397","4104.7","9.2762","0.185524","364.2"
"12.1764","4105.83","9.3054","0.186108","365.3"
"12.2131","4106.63","9.3367","0.186734","366.4"
"12.2497","4107.94","9.3639","0.187278","367.5"
"12.2863","4108.42","9.3942","0.187884","368.6"
"12.323","4109.71","9.4255","0.18851","369.7"
"12.3597","4110.58","9.4471","0.188942","370.8"
"12.3964","4111.95","9.4753","0.189506","371.9"
"12.433","4113","9.5039","0.190078","373"
"12.4697","4114.27","9.5325","0.19065","374.1"
"12.5064","4115.52","9.5641","0.191282","375.2"
"12.543","4116.27","9.5878","0.191732","376.3"
"12.5797","4117.34","9.621","0.19242","377.4"
"12.6163","4118.47","9.6478","0.192956","378.5"
"12.6531","4119.7","9.6721","0.193442","379.6"
"12.6897","4120.55","9.7011","0.194022","380.7"
"12.7264","4121.39","9.7293","0.194586","381.8"
"12.763","4122.84","9.764","0.19528","382.9"
"12.7997","4123.8","9.7863","0.195726","384"
"12.8364","4124.86","9.8163","0.196326","385.1"
"12.873","4125.69","9.8458","0.196916","386.2"
"12.9097","4126.57","9.866","0.19732","387.3"
"12.9464","4128.03","9.8978","0.197956","388.4"
"12.9831","4129.4","9.9291","0.198582","389.5"
"13.0198","4130.06","9.9586","0.199172","390.6"
"13.0564","4131.07","9.9918","0.199836","391.7"
"13.0931","4132.3","10.0179","0.200358","392.8"
"13.1298","4133.25","10.0479","0.200958","393.9"
"13.1664","4133.94","10.077","0.20154","395"
"13.203","4135.04","10.1012","0.202024","396.1"
"13.2397","4136.02","10.1236","0.202472","397.2"
"13.2764","4137.18","10.1554","0.203108","398.3"
"13.313","4138.18","10.1778","0.203556","399.4"
"13.3496","4138.7","10.2093","0.204186","400.5"
"13.3863","4139.93","10.2426","0.204852","401.6"
"13.423","4141.22","10.2689","0.205378","402.7"
"13.4597","4142.04","10.2968","0.205936","403.8"
"13.4964","4142.91","10.3223","0.206446","404.9"
"13.533","4143.79","10.353","0.20706","406"
"13.5697","4144.65","10.3811","0.207622","407.1"
"13.6064","4145.96","10.4064","0.208128","408.2"
"13.6431","4146.4","10.4381","0.208762","409.3"
"13.6797","4147.4","10.4677","0.209354","410.4"
"13.7164","4148.55","10.4926","0.209852","411.5"
"13.7531","4149.76","10.5217","0.210434","412.6"
"13.7897","4150.29","10.5504","0.211008","413.7"
"13.8263","4151.02","10.5778","0.211478","414.8"
"13.863","4152.4","10.6071","0.212142","415.9"
"13.8997","4153.43","10.6385","0.21277","417"
"13.9364","4154.57","10.6569","0.213138","418.1"
"13.973","4155.03","10.6891","0.213782","419.2"
"14.0097","4155.95","10.7169","0.214338","420.3"
"14.0464","4157.36","10.7452","0.214904","421.4"
"14.0831","4158.23","10.7681","0.215362","422.5"
"14.1197","4158.58","10.7938","0.215876","423.6"
"14.1564","4159.51","10.8187","0.216374","424.7"
"14.1931","4160.78","10.8508","0.217016","425.8"
"14.2297","4161.64","10.8783","0.217566","426.9"
"14.2664","4162.12","10.9071","0.218142","428"
"14.303","4163.03","10.9321","0.218642","429.1"
"14.3397","4164.01","10.9642","0.219284","430.2"
"14.3764","4165.03","10.996","0.21992","431.3"
"14.4131","4166.06","11.0196","0.220392","432.4"
"14.4497","4166.42","11.0412","0.220824","433.5"
"14.4863","4167.19","11.0755","0.22151","434.6"
"14.523","4168.32","11.1037","0.222074","435.7"
"14.5597","4169.41","11.135","0.2227","436.8"
"14.5963","4169.8","11.1583","0.223166","437.9"
"14.633","4171.08","11.1907","0.223814","439"
"14.6697","4172.17","11.2231","0.224462","440.1"
"14.7064","4172.53","11.2469","0.224938","441.2"
"14.7431","4173.47","11.274","0.22548","442.3"
"14.7797","4174.41","11.3048","0.226096","443.4"
"14.8164","4175.05","11.3344","0.226688","444.5"
"14.8531","4176.25","11.3612","0.227224","445.6"
"14.8898","4177.06","11.3938","0.227876","446.7"
"14.9264","4177.76","11.4222","0.228444","447.8"
"14.963","4178.7","11.4515","0.22903","448.9"
"14.9998","4179.68","11.4755","0.22951","450"
"15.0364","4180.59","11.5039","0.230078","451.1"
"15.073","4180.74","11.5347","0.230694","452.2"
"15.1097","4181.72","11.5614","0.231228","453.3"
"15.1464","4183.01","11.5897","0.231794","454.4"
"15.1831","4183.51","11.6199","0.232398","455.5"
"15.2197","4184.33","11.6496","0.232992","456.6"
"15.2563","4184.85","11.6765","0.23353","457.7"
"15.2931","4185.85","11.7051","0.234102","458.8"
"15.3297","4186.79","11.7377","0.234754","459.9"
"15.3664","4187.18","11.7656","0.235312","461"
"15.403","4187.82","11.7933","0.235866","462.1"
"15.4397","4188.64","11.8189","0.236378","463.2"
"15.4764","4189.79","11.8495","0.23699","464.3"
"15.513","4190.1","11.8748","0.237496","465.4"
"15.5497","4191.02","11.9008","0.238016","466.5"
"15.5863","4191.91","11.9335","0.23867","467.6"
"15.6231","4192.44","11.9665","0.23933","468.7"
"15.6598","4193.32","11.9899","0.239798","469.8"
"15.6963","4193.65","12.024","0.24048","470.9"
"15.733","4194.45","12.0477","0.240954","472"
"15.7697","4195.65","12.0751","0.241502","473.1"
"15.8064","4196.33","12.1065","0.24213","474.2"
"15.8431","4197.07","12.1318","0.242636","475.3"
"15.8797","4197.57","12.159","0.24318","476.4"
"15.9164","4198.45","12.1935","0.24387","477.5"
"15.9531","4199.17","12.2178","0.244356","478.6"
"15.9897","4199.92","12.2434","0.244868","479.7"
"16.0264","4200.78","12.2744","0.245488","480.8"
"16.063","4201.06","12.3001","0.246002","481.9"
"16.0998","4201.98","12.3255","0.24651","483"
"16.1364","4202.98","12.3565","0.24713","484.1"
"16.173","4203.02","12.3858","0.247716","485.2"
"16.2097","4204.12","12.4159","0.248318","486.3"
"16.2464","4205.16","12.4512","0.249024","487.4"
"16.283","4205.68","12.4773","0.249546","488.5"
"16.3197","4206.02","12.5003","0.250006","489.6"
"16.3564","4206.79","12.5278","0.250556","490.7"
"16.3931","4207.83","12.5581","0.251162","491.8"
"16.4297","4208.34","12.5883","0.251766","492.9"
"16.4664","4209.1","12.6212","0.252424","494"
"16.503","4209.55","12.6412","0.252824","495.1"
"16.5397","4210.12","12.6716","0.253432","496.2"
"16.5764","4211.6","12.6992","0.253984","497.3"
"16.6131","4211.61","12.7324","0.254648","498.4"
"16.6497","4212.34","12.7578","0.255156","499.5"
"16.6863","4213.09","12.7856","0.255712","500.6"
"16.7231","4213.98","12.8214","0.256428","501.7"
"16.7597","4214.37","12.8499","0.256998","502.8"
"16.7964","4215.19","12.883","0.25766","503.9"
"16.8331","4215.83","12.9126","0.258252","505"
"16.8697","4216.88","12.9455","0.25891","506.1"
"16.9064","4217.52","12.9718","0.259436","507.2"
"16.9431","4218.16","13.0034","0.260068","508.3"
"16.9797","4218.67","13.0063","0.260126","509.4"
"17.0164","4219.54","13.0633","0.261266","510.5"
"17.0531","4220.45","13.0956","0.261912","511.6"
"17.0897","4220.65","13.1274","0.262548","512.7"
"17.1263","4221.28","13.1593","0.263186","513.8"
"17.163","4222.19","13.1881","0.263762","514.9"
"17.1997","4222.91","13.2241","0.264482","516"
"17.2364","4223.51","13.2524","0.265048","517.1"
"17.273","4224.02","13.2826","0.265652","518.2"
"17.3097","4224.54","13.3082","0.266164","519.3"
"17.3464","4225.42","13.3456","0.266912","520.4"
"17.3831","4226.28","13.3772","0.267544","521.5"
"17.4196","4226.67","13.4087","0.268174","522.6"
"17.4563","4227.34","13.4434","0.268868","523.7"
"17.493","4228.38","13.4666","0.269332","524.8"
"17.5298","4229.18","13.5073","0.270146","525.9"
"17.5664","4229.14","13.54","0.2708","527"
"17.603","4229.9","13.5668","0.271336","528.1"
"17.6397","4230.67","13.6037","0.272074","529.2"
"17.6764","4231.53","13.6371","0.272742","530.3"
"17.7131","4232.33","13.6686","0.273372","531.4"
"17.7497","4233.02","13.7021","0.274042","532.5"
"17.7864","4233.54","13.7323","0.274646","533.6"
"17.8231","4234.64","13.7698","0.275396","534.7"
"17.8597","4235.32","13.8041","0.276082","535.8"
"17.8963","4234.55","13.8323","0.276646","536.9"
"17.933","4235.73","13.8638","0.277276","538"
"17.9697","4236.69","13.8983","0.277966","539.1"
"18.0064","4237.22","13.9315","0.27863","540.2"
"18.043","4237.97","13.9648","0.279296","541.3"
"18.0797","4238.27","14","0.28","542.4"
"18.1164","4239.43","14.0299","0.280598","543.5"
"18.1531","4240.16","14.0633","0.281266","544.6"
"18.1897","4240.74","14.0985","0.28197","545.7"
"18.2263","4241.01","14.131","0.28262","546.8"
"18.2631","4242.08","14.162","0.28324","547.9"
"18.2997","4242.9","14.1979","0.283958","549"
"18.3364","4243.47","14.2303","0.284606","550.1"
"18.373","4244.03","14.2603","0.285206","551.2"
"18.4097","4244.92","14.301","0.28602","552.3"
"18.4464","4245.51","14.3314","0.286628","553.4"
"18.4831","4245.86","14.3664","0.287328","554.5"
"18.5197","4246.53","14.3993","0.287986","555.6"
"18.5563","4246.95","14.4344","0.288688","556.7"
"18.593","4247.98","14.4671","0.289342","557.8"
"18.6297","4248.51","14.5034","0.290068","558.9"
"18.6664","4249.17","14.5372","0.290744","560"
"18.7031","4249.56","14.5711","0.291422","561.1"
"18.7398","4250.86","14.6065","0.29213","562.2"
"18.7765","4250.85","14.6449","0.292898","563.3"
"18.8131","4251.06","14.6738","0.293476","564.4"
"18.8497","4251.73","14.7127","0.294254","565.5"
"18.8864","4252.5","14.7467","0.294934","566.6"
"18.9231","4253.39","14.7798","0.295596","567.7"
"18.9597","4253.89","14.8172","0.296344","568.8"
"18.9964","4254.35","14.8462","0.296924","569.9"
"19.033","4255.08","14.8823","0.297646","571"
"19.0697","4255.69","14.9133","0.298266","572.1"
"19.1064","4256.32","14.9519","0.299038","573.2"
"19.143","4256.31","14.9819","0.299638","574.3"
"19.1797","4257.11","15.0174","0.300348","575.4"
"19.2164","4257.75","15.0529","0.301058","576.5"
"19.2531","4258.41","15.087","0.30174","577.6"
"19.2897","4258.97","15.1232","0.302464","578.7"
"19.3263","4259.6","15.1585","0.30317","579.8"
"19.3631","4260.125","15.1994","0.303988","580.9"
"19.3997","4260.46","15.2263","0.304526","582"
"19.4364","4261.57","15.2702","0.305404","583.1"
"19.473","4261.44","15.2984","0.305968","584.2"
"19.5097","4261.91","15.3314","0.306628","585.3"
"19.5464","4263.19","15.3679","0.307358","586.4"
"19.5831","4263.4","15.4001","0.308002","587.5"
"19.6197","4263.91","15.4424","0.308848","588.6"
"19.6564","4264.49","15.4711","0.309422","589.7"
"19.6931","4265.34","15.513","0.31026","590.8"
"19.7298","4265.86","15.5463","0.310926","591.9"
"19.7663","4266.02","15.5884","0.311648","593"
"19.803","4266.5","15.6175","0.31235","594.1"
"19.8397","4267.17","15.6533","0.313066","595.2"
"19.8764","4267.9","15.6853","0.313706","596.3"
"19.9131","4268.44","15.7315","0.31463","597.4"
"19.9497","4268.9","15.7636","0.315272","598.5"
"19.9864","4269.43","15.799","0.31598","599.6"
"20.0231","4269.98","15.8428","0.316856","600.7"
"20.0597","4270.27","15.8714","0.317428","601.8"
"20.0963","4271.16","15.9081","0.318162","602.9"
"20.133","4271.57","15.941","0.31882","604"
"20.1697","4272.39","15.9811","0.319622","605.1"
"20.2064","4272.96","16.0187","0.320374","606.2"
"20.243","4273.34","16.0515","0.32103","607.3"
"20.2797","4274.03","16.0896","0.321792","608.4"
"20.3164","4274.89","16.1278","0.322556","609.5"
"20.3531","4275.4","16.1677","0.323354","610.6"
"20.3897","4275.84","16.2019","0.324038","611.7"
"20.4264","4276.53","16.2376","0.324752","612.8"
"20.4631","4277.29","16.2733","0.325466","613.9"
"20.4998","4277.86","16.3122","0.326244","615"
"20.5364","4278.27","16.3521","0.327042","616.1"
"20.573","4278.92","16.3948","0.327896","617.2"
"20.6097","4279.43","16.4297","0.328594","618.3"
"20.6465","4280.48","16.4681","0.329362","619.4"
"20.6831","4280.93","16.5095","0.33019","620.5"
"20.7197","4281.23","16.5439","0.330878","621.6"
"20.7563","4281.65","16.5807","0.331614","622.7"
"20.7931","4282.36","16.6154","0.332308","623.8"
"20.8297","4282.92","16.6569","0.333138","624.9"
"20.8664","4282.92","16.6936","0.333872","626"
"20.903","4283.77","16.7328","0.334656","627.1"
"20.9397","4284.19","16.7716","0.335432","628.2"
"20.9764","4284.64","16.8","0.336","629.3"
"21.013","4285.53","16.84","0.3368","630.4"
"21.0496","4285.59","16.8723","0.337446","631.5"
"21.0864","4286.23","16.9145","0.33829","632.6"
"21.1231","4286.9","16.9569","0.339138","633.7"
"21.1597","4287.24","16.9926","0.339852","634.8"
"21.1963","4287.69","17.0347","0.340694","635.9"
"21.233","4288.43","17.0639","0.341278","637"
"21.2697","4289.14","17.1024","0.342048","638.1"
"21.3064","4289.28","17.1399","0.342798","639.2"
"21.343","4289.75","17.1762","0.343524","640.3"
"21.3797","4290.11","17.2146","0.344292","641.4"
"21.4164","4290.6","17.2534","0.345068","642.5"
"21.4531","4291.39","17.2863","0.345726","643.6"
"21.4897","4291.83","17.3246","0.346492","644.7"
"21.5264","4292.15","17.3665","0.34733","645.8"
"21.5631","4292.7","17.4024","0.348048","646.9"
"21.5998","4293.45","17.4328","0.348656","648"
"21.6364","4293.81","17.4755","0.34951","649.1"
"21.673","4294.05","17.5028","0.350056","650.2"
"21.7097","4294.79","17.5375","0.35075","651.3"
"21.7464","4295","17.5802","0.351604","652.4"
"21.7831","4295.49","17.6101","0.352202","653.5"
"21.8197","4295.95","17.6425","0.35285","654.6"
"21.8563","4296.29","17.6809","0.353618","655.7"
"21.8931","4297.06","17.7152","0.354304","656.8"
"21.9297","4297.75","17.7493","0.354986","657.9"
"21.9663","4297.87","17.7826","0.355652","659"
"22.003","4298.69","17.815","0.3563","660.1"
"22.0397","4299.05","17.8516","0.357032","661.2"
"22.0764","4299.66","17.8831","0.357662","662.3"
"22.1131","4299.79","17.923","0.35846","663.4"
"22.1497","4300.2","17.9494","0.358988","664.5"
"22.1864","4300.85","17.9903","0.359806","665.6"
"22.2231","4301.14","18.0205","0.36041","666.7"
"22.2597","4301.64","18.0571","0.361142","667.8"
"22.2963","4301.98","18.0864","0.361728","668.9"
"22.3331","4302.22","18.117","0.36234","670"
"22.3698","4303.2","18.1513","0.363026","671.1"
"22.4064","4303.27","18.1833","0.363666","672.2"
"22.443","4303.58","18.2157","0.364314","673.3"
"22.4797","4304.3","18.2522","0.365044","674.4"
"22.5164","4304.51","18.2878","0.365756","675.5"
"22.5531","4305.17","18.3192","0.366384","676.6"
"22.5897","4305.34","18.3471","0.366942","677.7"
"22.6263","4305.73","18.3847","0.367694","678.8"
"22.663","4306.13","18.4145","0.36829","679.9"
"22.6997","4306.83","18.4567","0.369134","681"
"22.7364","4307.13","18.485","0.3697","682.1"
"22.773","4307.18","18.5265","0.37053","683.2"
"22.8097","4308.08","18.5553","0.371106","684.3"
"22.8464","4308.64","18.5931","0.371862","685.4"
"22.883","4308.02","18.6309","0.372618","686.5"
"22.9196","4308.8","18.6619","0.373238","687.6"
"22.9563","4309.31","18.6978","0.373956","688.7"
"22.993","4309.8","18.7328","0.374656","689.8"
"23.0297","4310.1","18.7683","0.375366","690.9"
"23.0664","4310.23","18.8057","0.376114","692"
"23.103","4310.53","18.8378","0.376756","693.1"
"23.1397","4311.15","18.8774","0.377548","694.2"
"23.1764","4311.92","18.9141","0.378282","695.3"
"23.213","4312.01","18.9515","0.37903","696.4"
"23.2497","4312.07","18.9822","0.379644","697.5"
"23.2864","4312.93","19.0126","0.380252","698.6"
"23.3231","4313.19","19.0501","0.381002","699.7"
"23.3597","4313.36","19.0875","0.38175","700.8"
"23.3964","4313.73","19.1266","0.382532","701.9"
"23.4331","4314.46","19.1556","0.383112","703"
"23.4698","4314.75","19.2","0.384","704.1"
"23.5064","4315.17","19.2371","0.384742","705.2"
"23.543","4315.32","19.2675","0.38535","706.3"
"23.5797","4315.54","19.311","0.38622","707.4"
"23.6164","4316.34","19.3443","0.386886","708.5"
"23.653","4316.7","19.3837","0.387674","709.6"
"23.6897","4316.72","19.4173","0.388346","710.7"
"23.7263","4317.23","19.462","0.38924","711.8"
"23.763","4317.5","19.4983","0.389966","712.9"
"23.7997","4317.87","19.5402","0.390804","714"
"23.8364","4318.33","19.5727","0.391454","715.1"
"23.873","4318.65","19.6175","0.39235","716.2"
"23.9097","4318.94","19.655","0.3931","717.3"
"23.9464","4319.52","19.6981","0.393962","718.4"
"23.9831","4320.3","19.7348","0.394696","719.5"
"24.0197","4320.04","19.7758","0.395516","720.6"
"24.0564","4320.77","19.8213","0.396426","721.7"
"24.0931","4321.7","19.8598","0.397196","722.8"
"24.1297","4321.85","19.9074","0.398148","723.9"
"24.1663","4321.73","19.9489","0.398978","725"
"24.203","4322.23","19.9833","0.399666","726.1"
"24.2397","4322.73","20.0255","0.40051","727.2"
"24.2764","4323.34","20.061","0.40122","728.3"
"24.313","4323.54","20.1055","0.40211","729.4"
"24.3497","4323.77","20.145","0.4029","730.5"
"24.3864","4324.66","20.1854","0.403708","731.6"
"24.4231","4325.01","20.2246","0.404492","732.7"
"24.4598","4324.96","20.2709","0.405418","733.8"
"24.4964","4324.99","20.3008","0.406016","734.9"
"24.5331","4326.03","20.3448","0.406896","736"
"24.5697","4326.15","20.3858","0.407716","737.1"
"24.6064","4326.38","20.4309","0.408618","738.2"
"24.643","4326.75","20.4739","0.409478","739.3"
"24.6797","4327.01","20.5083","0.410166","740.4"
"24.7164","4327.6","20.5554","0.411108","741.5"
"24.7531","4327.86","20.6002","0.412004","742.6"
"24.7897","4328.1","20.644","0.41288","743.7"
"24.8263","4328.33","20.6846","0.413692","744.8"
"24.863","4329.08","20.7227","0.414454","745.9"
"24.8997","4329.83","20.7709","0.415418","747"
"24.9363","4329.84","20.8133","0.416266","748.1"
"24.973","4330.37","20.8591","0.417182","749.2"
"25.0097","4330.47","20.8982","0.417964","750.3"
"25.0464","4330.82","20.9463","0.418926","751.4"
"25.0831","4331.24","20.9885","0.41977","752.5"
"25.1197","4331.56","21.0285","0.42057","753.6"
"25.1564","4331.77","21.0692","0.421384","754.7"
"25.1931","4332.34","21.1185","0.42237","755.8"
"25.2298","4332.89","21.1577","0.423154","756.9"
"25.2664","4332.95","21.2057","0.424114","758"
"25.303","4333.14","21.2438","0.424876","759.1"
"25.3398","4334.21","21.2907","0.425814","760.2"
"25.3764","4333.93","21.329","0.42658","761.3"
"25.413","4334.43","21.3689","0.427378","762.4"
"25.4497","4334.82","21.4065","0.42813","763.5"
"25.4864","4334.96","21.4453","0.428906","764.6"
"25.5231","4335.56","21.4713","0.429426","765.7"
"25.5597","4335.78","21.5156","0.430312","766.8"
"25.5963","4335.69","21.5519","0.431038","767.9"
"25.633","4336.51","21.5897","0.431794","769"
"25.6698","4337.33","21.6275","0.43255","770.1"
"25.7064","4337.5","21.6619","0.433238","771.2"
"25.743","4337.16","21.6977","0.433954","772.3"
"25.7797","4337.81","21.7389","0.434778","773.4"
"25.8164","4338.69","21.769","0.43538","774.5"
"25.853","4338.62","21.8088","0.436176","775.6"
"25.8897","4339.27","21.8493","0.436986","776.7"
"25.9264","4339.11","21.8906","0.437812","777.8"
"25.9631","4339.7","21.9247","0.438494","778.9"
"25.9997","4340.29","21.9609","0.439218","780"
"26.0363","4340.34","22.0045","0.44009","781.1"
"26.073","4340.72","22.0381","0.440762","782.2"
"26.1097","4341.11","22.0801","0.441602","783.3"
"26.1464","4341.81","22.1098","0.442196","784.4"
"26.1831","4341.89","22.1605","0.44321","785.5"
"26.2197","4342.32","22.201","0.44402","786.6"
"26.2564","4343.02","22.2361","0.444722","787.7"
"26.2931","4342.97","22.278","0.44556","788.8"
"26.3298","4343.27","22.3119","0.446238","789.9"
"26.3664","4343.43","22.3445","0.44689","791"
"26.403","4343.6","22.3802","0.447604","792.1"
"26.4397","4344.31","22.4164","0.448328","793.2"
"26.4764","4344.69","22.4545","0.44909","794.3"
"26.513","4344.49","22.4865","0.44973","795.4"
"26.5496","4345.01","22.5266","0.450532","796.5"
"26.5864","4345.95","22.5662","0.451324","797.6"
"26.6231","4346.08","22.6013","0.452026","798.7"
"26.6597","4346.11","22.6338","0.452676","799.8"
"26.6964","4346.56","22.6676","0.453352","800.9"
"26.733","4346.86","22.6996","0.453992","802"
"26.7698","4347.41","22.7378","0.454756","803.1"
"26.8064","4347.64","22.7747","0.455494","804.2"
"26.843","4347.63","22.8138","0.456276","805.3"
"26.8797","4348.28","22.8476","0.456952","806.4"
"26.9164","4348.83","22.8825","0.45765","807.5"
"26.9531","4348.97","22.9306","0.458612","808.6"
"26.9897","4349.06","22.97","0.459114","809.7"
"27.0263","4349.59","23.0045","0.46009","810.8"
"27.0631","4350.26","23.0455","0.46091","811.9"
"27.0998","4350.6","23.0811","0.461622","813"
"27.1364","4350.78","23.1243","0.462486","814.1"
"27.173","4351.15","23.1647","0.463294","815.2"
"27.2097","4351.34","23.2019","0.464038","816.3"
"27.2464","4352.14","23.2387","0.464774","817.4"
"27.2831","4352.66","23.2872","0.465454","818.5"
"27.3197","4352.54","23.3152","0.466304","819.6"
"27.3564","4353.09","23.351","0.46702","820.7"
"27.3931","4353.35","23.3849","0.467698","821.8"
"27.4297","4353.57","23.4341","0.468682","822.9"
"27.4663","4354.06","23.4727","0.469454","824"
"27.503","4354.38","23.5014","0.470028","825.1"
"27.5397","4354.47","23.5414","0.470828","826.2"
"27.5764","4355.08","23.5862","0.471724","827.3"
"27.613","4355.41","23.6263","0.472526","828.4"
"27.6496","4355.43","23.6605","0.47321","829.5"
"27.6864","4355.95","23.7045","0.47409","830.6"
"27.723","4356.55","23.7451","0.474902","831.7"
"27.7597","4356.63","23.7847","0.475694","832.8"
"27.7963","4357.15","23.8177","0.476354","833.9"
"27.8331","4357.59","23.87","0.4774","835"
"27.8697","4357.87","23.9122","0.478244","836.1"
"27.9064","4358.05","23.957","0.47914","837.2"
"27.943","4358.42","23.9923","0.479846","838.3"
"27.9797","4358.52","24.0324","0.480648","839.4"
"28.0164","4358.99","24.0736","0.481472","840.5"
"28.0531","4359.77","24.1127","0.482254","841.6"
"28.0897","4359.95","24.155","0.4831","842.7"
"28.1264","4360.19","24.1888","0.483776","843.8"
"28.1631","4360.66","24.2329","0.484658","844.9"
"28.1997","4360.86","24.2686","0.485372","846"
"28.2364","4360.83","24.3063","0.486126","847.1"
"28.273","4361.26","24.3481","0.486962","848.2"
"28.3097","4361.92","24.3867","0.487734","849.3"
"28.3464","4362.24","24.4285","0.48857","850.4"
"28.383","4362.15","24.4699","0.489398","851.5"
"28.4197","4362.69","24.5048","0.490096","852.6"
"28.4564","4362.8","24.5439","0.490878","853.7"
"28.4931","4363.27","24.5813","0.491626","854.8"
"28.5297","4363.85","24.6283","0.492566","855.9"
"28.5663","4363.71","24.6537","0.493074","857"
"28.603","4363.86","24.6988","0.493976","858.1"
"28.6397","4364.52","24.7392","0.494784","859.2"
"28.6764","4364.45","24.779","0.49558","860.3"
"28.713","4364.76","24.8131","0.496262","861.4"
"28.7497","4365.29","24.8517","0.497034","862.5"
"28.7864","4365.67","24.8948","0.497896","863.6"
"28.8231","4365.8","24.9338","0.498676","864.7"
"28.8597","4366.06","24.9765","0.49953","865.8"
"28.8963","4366.14","25.0066","0.500132","866.9"
"28.933","4366.42","25.0457","0.500914","868"
"28.9697","4366.79","25.0907","0.501814","869.1"
"29.0064","4366.98","25.1248","0.502496","870.2"
"29.0431","4367.17","25.1681","0.503362","871.3"
"29.0797","4367.57","25.2072","0.504144","872.4"
"29.1164","4367.11","25.2439","0.504878","873.5"
"29.1531","4367.25","25.2786","0.505572","874.6"
"29.1897","4366.98","25.3147","0.506294","875.7"
"29.2264","4367.48","25.3509","0.507018","876.8"
"29.2631","4367.73","25.3907","0.507814","877.9"
"29.2998","4368.24","25.4282","0.508564","879"
"29.3363","4368.26","25.4604","0.509208","880.1"
"29.373","4368.34","25.4893","0.509786","881.2"
"29.4097","4368.87","25.5377","0.510754","882.3"
"29.4464","4369.125","25.5701","0.511402","883.4"
"29.483","4368.97","25.6101","0.512202","884.5"
"29.5197","4369.6","25.6379","0.512758","885.6"
"29.5564","4369.87","25.6722","0.513444","886.7"
"29.5931","4370.01","25.7077","0.514154","887.8"
"29.6297","4370.4","25.7387","0.514774","888.9"
"29.6664","4370.4","25.7798","0.515596","890"
"29.703","4370.94","25.8217","0.516434","891.1"
"29.7398","4371.16","25.8534","0.517068","892.2"
"29.7764","4371.54","25.8781","0.517562","893.3"
"29.813","4371.24","25.9217","0.518434","894.4"
"29.8497","4371.81","25.955","0.5191","895.5"
"29.8864","4372.48","25.9865","0.51973","896.6"
"29.9231","4372.26","26.0238","0.520476","897.7"
"29.9597","4371.33","26.0602","0.521204","898.8"
"29.9964","4371.62","26.0999","0.521998","899.9"
"30.0331","4372.06","26.1373","0.522746","901"
"30.0697","4372.41","26.174","0.52348","902.1"
"30.1064","4372.35","26.2006","0.524012","903.2"
"30.143","4372.73","26.2424","0.524848","904.3"
"30.1797","4373.02","26.2732","0.525464","905.4"
"30.2165","4373.81","26.3086","0.526172","906.5"
"30.2531","4374.13","26.3467","0.526934","907.6"
"30.2897","4373.91","26.3742","0.527484","908.7"
"30.3264","4374.42","26.4219","0.528438","909.8"
"30.363","4374.89","26.4435","0.52887","910.9"
"30.3997","4375.04","26.4864","0.529728","912"
"30.4363","4375.42","26.5121","0.530242","913.1"
"30.473","4375.5","26.5425","0.53085","914.2"
"30.5097","4375.72","26.5753","0.531506","915.3"
"30.5464","4375.82","26.6154","0.532308","916.4"
"30.583","4376.19","26.6535","0.53307","917.5"
"30.6196","4376.41","26.6863","0.533726","918.6"
"30.6564","4376.94","26.7187","0.534374","919.7"
"30.6931","4377.54","26.7445","0.53489","920.8"
"30.7297","4377.37","26.7911","0.535822","921.9"
"30.7664","4377.64","26.8073","0.536146","923"
"30.803","4378.13","26.8515","0.53703","924.1"
"30.8397","4378.03","26.8784","0.537568","925.2"
"30.8764","4378.7","26.9166","0.538332","926.3"
"30.913","4378.75","26.9628","0.539256","927.4"
"30.9497","4379.15","26.994","0.53988","928.5"
"30.9864","4379.61","27.0235","0.54047","929.6"
"31.0231","4379.73","27.0706","0.541412","930.7"
"31.0597","4379.71","27.1064","0.542128","931.8"
"31.0963","4379.9","27.1357","0.542714","932.9"
"31.133","4380.73","27.1752","0.543504","934"
"31.1697","4380.8","27.2192","0.544384","935.1"
"31.2064","4380.66","27.253","0.54506","936.2"
"31.243","4381.05","27.2967","0.545934","937.3"
"31.2797","4381.32","27.3347","0.546694","938.4"
"31.3164","4381.46","27.3726","0.547452","939.5"
"31.353","4381.62","27.4109","0.548218","940.6"
"31.3897","4381.71","27.4487","0.548974","941.7"
"31.4264","4381.89","27.4854","0.549708","942.8"
"31.4631","4382.38","27.5175","0.55035","943.9"
"31.4997","4382.72","27.5614","0.551228","945"
"31.5363","4382.69","27.5954","0.551908","946.1"
"31.573","4382.85","27.6359","0.552718","947.2"
"31.6097","4383.18","27.6747","0.553494","948.3"
"31.6464","4383.15","27.7157","0.554314","949.4"
"31.683","4383.62","27.7572","0.555144","950.5"
"31.7196","4383.4","27.7928","0.555856","951.6"
"31.7564","4383.44","27.8296","0.556592","952.7"
"31.7931","4384.05","27.8734","0.557468","953.8"
"31.8297","4384.15","27.9048","0.558096","954.9"
"31.8664","4384.11","27.9568","0.559136","956"
"31.9031","4384.45","27.9888","0.559776","957.1"
"31.9398","4384.86","28.0413","0.560826","958.2"
"31.9764","4384.88","28.0799","0.561598","959.3"
"32.013","4385.14","28.1208","0.562416","960.4"
"32.0497","4385.35","28.1624","0.563248","961.5"
"32.0864","4385.46","28.2031","0.564062","962.6"
"32.1231","4385.89","28.244","0.56488","963.7"
"32.1597","4386","28.2862","0.565724","964.8"
"32.1963","4386.01","28.3206","0.566412","965.9"
"32.233","4386.27","28.3578","0.567156","967"
"32.2697","4386.41","28.4215","0.56843","968.1"
"32.3063","4386.49","28.4457","0.568914","969.2"
"32.343","4386.35","28.4866","0.569732","970.3"
"32.3797","4386.1","28.5373","0.570746","971.4"
"32.4164","4385.89","28.5759","0.571518","972.5"
"32.453","4385.82","28.6226","0.572452","973.6"
"32.4897","4386.23","28.6616","0.573232","974.7"
"32.5264","4386.5","28.6881","0.573762","975.8"
"32.5631","4386.75","28.729","0.57458","976.9"
"32.5998","4387.22","28.7665","0.57533","978"
"32.6364","4387.48","28.8109","0.576218","979.1"
"32.673","4387.68","28.8419","0.576838","980.2"
"32.7097","4387.97","28.8879","0.577758","981.3"
"32.7464","4388.25","28.9208","0.578416","982.4"
"32.783","4388.16","28.9712","0.579424","983.5"
"32.8197","4387.34","29.0013","0.580026","984.6"
"32.8564","4388.47","29.0488","0.580976","985.7"
"32.8931","4388.47","29.092","0.58184","986.8"
"32.9297","4388.56","29.1307","0.582614","987.9"
"32.9663","4388.81","29.1667","0.583334","989"
"33.003","4388.76","29.2185","0.58437","990.1"
"33.0397","4387.7","29.266","0.58532","991.2"
"33.0764","4386.13","29.3054","0.586108","992.3"
"33.1131","4385.89","29.3507","0.587014","993.4"
"33.1497","4381.68","29.4049","0.588098","994.5"
"33.1864","4381.14","29.4419","0.588838","995.6"
"33.2231","4381.4","29.4995","0.58999","996.7"
"33.2597","4381.04","29.5358","0.590716","997.8"
"33.2963","4378.97","29.5948","0.591896","998.9"
"33.333","4373.43","29.657","0.59314","1000"
"33.3698","4372.75","29.7139","0.594278","1001.1"
"33.4063","4371.5","29.7722","0.595444","1002.2"
"33.443","4367.23","29.8246","0.596492","1003.3"
"33.4797","4366.62","29.872","0.59744","1004.4"
"33.5164","4365.77","29.9038","0.598076","1005.5"
"33.553","4365.18","29.9467","0.598934","1006.6"
"33.5897","4364.7","30.0028","0.600056","1007.7"
"33.6264","4364.3","30.034","0.60068","1008.8"
"33.6631","4363.4","30.1168","0.602336","1009.9"
"33.6998","4362.67","30.161","0.60322","1011"
"33.7364","4357.71","30.2364","0.604728","1012.1"
"33.7731","4355.79","30.2857","0.605714","1013.2"
"33.8098","4343.05","30.3475","0.60695","1014.3"
"33.8465","4339.05","30.4295","0.60859","1015.4"
"33.883","4328.96","30.5095","0.61019","1016.5"
"33.9197","4326.72","30.5638","0.611276","1017.6"
"33.9564","4324.39","30.6648","0.613296","1018.7"
"33.993","4323.13","30.6996","0.613992","1019.8"
"34.0297","4322.62","30.7412","0.614824","1020.9"
"34.0663","4321","30.7789","0.615578","1022"
"34.103","4312.54","30.8141","0.616282","1023.1"
"34.1397","4305.48","30.8699","0.617398","1024.2"
"34.1764","4291.09","30.9265","0.61853","1025.3"
"34.213","4289.76","30.9573","0.619146","1026.4"
"34.2497","4288.76","31.0316","0.620632","1027.5"
"34.2864","4278.24","31.1151","0.622302","1028.6"
"34.3231","4262.41","31.1972","0.623944","1029.7"
"34.3597","4246.02","31.2507","0.625014","1030.8"
"34.3964","4219.84","31.2714","0.625428","1031.9"
"34.4331","4214.16","31.3073","0.626146","1033"
"34.4697","4201","31.3587","0.627174","1034.1"
"34.5064","4196.23","31.3872","0.627744","1035.2"
"34.543","3760.14","31.4326","0.628652","1036.3"
"34.5797","3692.52","31.5312","0.630624","1037.4"
"34.6164","3677.72","31.5777","0.631554","1038.5"
"34.653","3658.7","31.6162","0.632324","1039.6"
"34.6897","3637.44","31.6599","0.633198","1040.7"
"34.7264","3627.39","31.6921","0.633842","1041.8"
"34.7631","3620.28","31.7489","0.634978","1042.9"
"34.7998","3609.16","31.7998","0.635996","1044"
"34.8364","3572.13","31.8562","0.637124","1045.1"
"34.873","3537.81","31.8873","0.637746","1046.2"
"34.9097","3512.3","31.9245","0.63849","1047.3"
"34.9464","3471.71","31.9615","0.63923","1048.4"
"34.983","3459.45","32.0001","0.640002","1049.5"
"35.0197","3440.94","32.0364","0.640728","1050.6"
"35.0564","3429.18","32.0745","0.64149","1051.7"
"35.0931","3423","32.1163","0.642326","1052.8"
"35.1296","3418.31","32.1482","0.642964","1053.9"
"35.1663","3409.35","32.2103","0.644206","1055"
"35.203","3398.89","32.2783","0.645566","1056.1"
"35.2397","3355.95","32.3781","0.647562","1057.2"
"35.2764","3265.99","32.4823","0.649646","1058.3"
"35.2989","658.771","32.5735","0.65147","1058.97"