File: experimental_data/tensile_specimen_test_data/tensile_test_data/20250312/original_data/SSS 15 03-12-25 16 18 12 下午/数采：横梁, … - (实时值).csv
"文件路径: C:\Users\Lenovo\Desktop\Wayne\20250312\原始数据\SSS 15 03-12-25 16 18 12 下午\数采：横梁, … - (实时值).csv   "
"试验: 拉伸试验（UNIVER）      视频引伸计采集变形-W 1"
"试验运行: SSS 15"
"日期: 2025/3/12 15:38:42"
""
""
"横梁 ","力 ","视频引伸计变形 ","应变 ","时间 "
"mm","N","mm","mm/mm","sec"
"0.00270132","-24.3286","0.0003","6e-06","0.1"
"0.0332542","142.989","0.0442","0.000884","1"
"0.0632947","316.165","0.0834","0.001668","1.9"
"0.0931955","485.446","0.117","0.00234","2.8"
"0.123236","648.772","0.1426","0.002852","3.7"
"0.153277","803.451","0.166","0.00332","4.6"
"0.183224","948.41","0.1871","0.003742","5.5"
"0.213265","1081.64","0.2057","0.004114","6.4"
"0.243259","1198.29","0.2219","0.004438","7.3"
"0.273252","1294.58","0.2348","0.004696","8.2"
"0.303246","1365.4","0.248","0.00496","9.1"
"0.33324","1428.1","0.255","0.0051","10"
"0.363281","1487.45","0.2659","0.005318","10.9"
"0.393228","1544.25","0.2755","0.00551","11.8"
"0.423176","1600","0.2845","0.00569","12.7"
"0.453263","1651.69","0.2941","0.005882","13.6"
"0.483257","1700.32","0.3006","0.006012","14.5"
"0.513204","1747.88","0.3092","0.006184","15.4"
"0.543245","1796.05","0.3163","0.006326","16.3"
"0.573239","1843.31","0.3243","0.006486","17.2"
"0.603233","1889.08","0.3311","0.006622","18.1"
"0.633227","1934.5","0.3414","0.006808","19"
"0.663267","1979.74","0.3511","0.007022","19.9"
"0.693261","2024.14","0.3583","0.007166","20.8"
"0.723255","2066.88","0.3663","0.007326","21.7"
"0.753249","2110.27","0.3745","0.00749","22.6"
"0.783336","2153.94","0.3822","0.007644","23.5"
"0.813237","2195.48","0.3906","0.007812","24.4"
"0.843184","2236.65","0.4003","0.008006","25.3"
"0.873271","2278.76","0.4099","0.008198","26.2"
"0.903265","2319.67","0.4175","0.00835","27.1"
"0.933213","2359.7","0.4278","0.008556","28"
"0.963207","2399.33","0.4369","0.008738","28.9"
"0.993247","2438.79","0.4466","0.008932","29.8"
"1.02324","2477.56","0.4576","0.009152","30.7"
"1.05324","2515.29","0.4668","0.009336","31.6"
"1.08323","2552.86","0.4769","0.009538","32.5"
"1.11327","2590.27","0.4871","0.009742","33.4"
"1.14322","2626.53","0.4975","0.00995","34.3"
"1.17321","2662.22","0.5084","0.010168","35.2"
"1.20334","2697.71","0.5194","0.010388","36.1"
"1.23329","2731.51","0.5295","0.01059","37"
"1.26319","2764.86","0.5407","0.010814","37.9"
"1.29328","2798.15","0.5519","0.011038","38.8"
"1.32332","2830.66","0.5626","0.011252","39.7"
"1.35327","2861.98","0.5756","0.011512","40.6"
"1.38322","2892.06","0.5879","0.011758","41.5"
"1.41326","2921.95","0.6008","0.012016","42.4"
"1.4433","2951.37","0.6134","0.012268","43.3"
"1.47324","2979.2","0.6251","0.012502","44.2"
"1.50324","3006.56","0.6381","0.012762","45.1"
"1.53328","3033.07","0.651","0.01302","46"
"1.56323","3058.88","0.6638","0.013276","46.9"
"1.59322","3084.04","0.678","0.01356","47.8"
"1.62331","3092.85","0.7121","0.014242","48.7"
"1.65325","3123.03","0.7245","0.01449","49.6"
"1.6832","3148.06","0.7393","0.014786","50.5"
"1.71324","3171.12","0.7558","0.01508","51.4"
"1.74333","3192.94","0.7708","0.015416","52.3"
"1.77328","3213.52","0.7865","0.01573","53.2"
"1.80322","3233.78","0.8009","0.016018","54.1"
"1.83326","3253.27","0.8172","0.016344","55"
"1.86331","3272.21","0.8333","0.016666","55.9"
"1.89325","3290.7","0.8497","0.016994","56.8"
"1.92325","3287.05","0.8502","0.017004","57.7"
"1.95329","3311.31","0.8643","0.017286","58.6"
"1.98323","3330.27","0.8803","0.017606","59.5"
"2.01323","3347.3","0.8944","0.017888","60.4"
"2.04327","3364.25","0.9113","0.018226","61.3"
"2.07326","3379.46","0.9297","0.018594","62.2"
"2.10316","3394","0.9476","0.018952","63.1"
"2.13325","3408.99","0.964","0.01928","64"
"2.16329","3411.57","0.9881","0.019762","64.9"
"2.19329","3429.78","1.0054","0.020108","65.8"
"2.22323","3444.99","1.0225","0.02045","66.7"
"2.25327","3459.08","1.0403","0.020806","67.6"
"2.28327","3472.4","1.0578","0.021156","68.5"
"2.31326","3484.65","1.0749","0.021498","69.4"
"2.34326","3497.04","1.0927","0.021854","70.3"
"2.3733","3509.45","1.1109","0.022218","71.2"
"2.40329","3520.96","1.1315","0.02263","72.1"
"2.43324","3531.86","1.1506","0.023012","73"
"2.46328","3543.42","1.168","0.02336","73.9"
"2.49327","3554.97","1.1855","0.02371","74.8"
"2.52322","3565.18","1.2034","0.024068","75.7"
"2.55321","3554.79","1.2066","0.024132","76.6"
"2.5833","3575.09","1.2198","0.024396","77.5"
"2.61325","3588.73","1.2339","0.024678","78.4"
"2.64319","3599.59","1.2529","0.025058","79.3"
"2.67324","3610.09","1.2704","0.025408","80.2"
"2.70328","3620.33","1.2886","0.025772","81.1"
"2.73322","3629.59","1.3105","0.02621","82"
"2.76322","3638.63","1.3298","0.026596","82.9"
"2.79326","3648.43","1.3482","0.026964","83.8"
"2.82325","3657.56","1.3666","0.027332","84.7"
"2.8532","3665.76","1.3834","0.027668","85.6"
"2.88329","3674.92","1.4035","0.02807","86.5"
"2.91328","3683.9","1.422","0.02844","87.4"
"2.94323","3692.19","1.4416","0.028832","88.3"
"2.97322","3700.11","1.461","0.02922","89.2"
"3.00326","3708.57","1.4791","0.029582","90.1"
"3.0333","3716.93","1.4994","0.029988","91"
"3.0632","3724.78","1.5176","0.030352","91.9"
"3.0932","3732.64","1.5396","0.030792","92.8"
"3.12328","3741.06","1.5579","0.031158","93.7"
"3.15328","3748.77","1.5772","0.031544","94.6"
"3.18323","3756.09","1.5968","0.031936","95.5"
"3.21327","3763.72","1.6167","0.032334","96.4"
"3.24326","3766.04","1.6188","0.032376","97.3"
"3.27321","3774.99","1.6347","0.032694","98.2"
"3.30325","3783.47","1.6536","0.033072","99.1"
"3.33329","3791.33","1.6718","0.033436","100"
"3.36324","3798.5","1.6908","0.033816","100.9"
"3.39323","3805.71","1.71","0.0342","101.8"
"3.42327","3813.2","1.7297","0.034594","102.7"
"3.45331","3820.26","1.7526","0.035052","103.6"
"3.48321","3827.17","1.7713","0.035426","104.5"
"3.51321","3833.99","1.7903","0.035806","105.4"
"3.54325","3841.31","1.8097","0.036194","106.3"
"3.57329","3847.9","1.8285","0.03657","107.2"
"3.60323","3854.92","1.8485","0.03697","108.1"
"3.63328","3861.86","1.8679","0.037358","109"
"3.66327","3868.39","1.8876","0.037752","109.9"
"3.69322","3874.4","1.9064","0.038128","110.8"
"3.72326","3881.27","1.9263","0.038526","111.7"
"3.75325","3887.78","1.9487","0.038974","112.6"
"3.78325","3894.18","1.9659","0.039318","113.5"
"3.81324","3900.57","1.9853","0.039706","114.4"
"3.84323","3907.19","2.3568","0.047136","115.3"
"3.87332","3914.08","2.3781","0.047562","116.2"
"3.90327","3919.44","2.3969","0.047938","117.1"
"3.93322","3926.12","2.4192","0.048384","118"
"3.9633","3932.74","2.44","0.0488","118.9"
"3.9933","3938.61","2.4625","0.04925","119.8"
"4.02324","3944.54","2.4823","0.049646","120.7"
"4.05324","3950.62","2.5038","0.050076","121.6"
"4.08328","3956.79","2.5251","0.050502","122.5"
"4.11323","3962.13","2.5477","0.050954","123.4"
"4.14327","3968.15","2.5674","0.051348","124.3"
"4.17326","3974.76","2.5934","0.051868","125.2"
"4.20325","3897.13","2.6355","0.05271","126.1"
"4.2332","3941.09","2.654","0.05308","127"
"4.26324","3963.07","2.6651","0.053302","127.9"
"4.29328","3976.42","2.6822","0.053644","128.8"
"4.32323","3985.12","2.6978","0.053956","129.7"
"4.35322","3992.06","2.7184","0.054368","130.6"
"4.38331","3999.33","2.7388","0.054776","131.5"
"4.4133","4005.35","2.7589","0.055178","132.4"
"4.44325","4010.69","2.7796","0.055592","133.3"
"4.47325","4016.62","2.8006","0.056012","134.2"
"4.50329","4022.47","2.8217","0.056434","135.1"
"4.53323","4028.05","2.8464","0.056928","136"
"4.56323","4033.36","2.8654","0.057308","136.9"
"4.59327","4038.96","2.8873","0.057746","137.8"
"4.62326","4044.57","2.9064","0.058128","138.7"
"4.65321","4049.62","2.9295","0.05859","139.6"
"4.6832","4054.93","2.949","0.05898","140.5"
"4.71329","4060.65","2.971","0.05942","141.4"
"4.74324","4066.09","2.9905","0.05981","142.3"
"4.77319","4071.15","3.0129","0.060258","143.2"
"4.80327","4076.36","3.0362","0.060724","144.1"
"4.83327","4081.74","3.0588","0.061176","145"
"4.86326","4086.61","3.0801","0.061602","145.9"
"4.89321","4091.89","3.1035","0.06207","146.8"
"4.92325","4096.57","3.1218","0.062436","147.7"
"4.95329","4101.86","3.1445","0.06289","148.6"
"4.98324","4102.22","3.1686","0.063372","149.5"
"5.01323","4108.28","3.1867","0.063734","150.4"
"5.04327","4114.24","3.2055","0.06411","151.3"
"5.07326","4119.37","3.2248","0.064496","152.2"
"5.10321","4124.86","3.2474","0.064948","153.1"
"5.1333","4130.36","3.2688","0.065376","154"
"5.16325","4134.72","3.2915","0.06583","154.9"
"5.19319","4139.46","3.3146","0.066292","155.8"
"5.22323","4144.65","3.3352","0.066704","156.7"
"5.25328","4149.48","3.3579","0.067158","157.6"
"5.28322","4153.96","3.3789","0.067578","158.5"
"5.31322","4158.92","3.4021","0.068042","159.4"
"5.34326","4163.22","3.4221","0.068442","160.3"
"5.37325","4167.74","3.4435","0.06887","161.2"
"5.40325","4172.24","3.4652","0.069304","162.1"
"5.43324","4176.86","3.4881","0.069762","163"
"5.46328","4181.95","3.5081","0.070162","163.9"
"5.49323","4185.91","3.5297","0.070594","164.8"
"5.52322","4190.56","3.5541","0.071082","165.7"
"5.55331","4195.61","3.5743","0.071486","166.6"
"5.5833","4199.96","3.5987","0.071974","167.5"
"5.6132","4203.74","3.6188","0.072376","168.4"
"5.64324","4208.31","3.643","0.07286","169.3"
"5.67328","4212.68","3.6629","0.073258","170.2"
"5.70323","4216.75","3.6851","0.073702","171.1"
"5.73323","4220.95","3.7053","0.074106","172"
"5.76322","4225.39","3.7269","0.074538","172.9"
"5.79326","4229.93","3.7468","0.074936","173.8"
"5.82325","4233.62","3.7676","0.075352","174.7"
"5.85325","4237.93","3.7901","0.075802","175.6"
"5.88329","4242.47","3.8132","0.076264","176.5"
"5.91324","4245.9","3.8339","0.076678","177.4"
"5.94318","4249.88","3.8608","0.077216","178.3"
"5.97332","4254.39","3.8802","0.077604","179.2"
"6.00331","4258.52","3.9005","0.07801","180.1"
"6.03321","4261.96","3.9207","0.078414","181"
"6.06325","4265.87","3.9461","0.078922","181.9"
"6.09334","4270.48","3.9644","0.079288","182.8"
"6.12329","4274.42","3.9889","0.079778","183.7"
"6.15319","4277.87","4.0109","0.080218","184.6"
"6.18323","4281.64","4.0306","0.080612","185.5"
"6.21327","4286.09","4.0506","0.081012","186.4"
"6.24322","4289.41","4.0769","0.081538","187.3"
"6.27321","4293.12","4.0966","0.081932","188.2"
"6.30325","4297.58","4.1197","0.082394","189.1"
"6.33329","4301.24","4.1402","0.082804","190"
"6.36319","4304.53","4.1627","0.083254","190.9"
"6.39328","4308.26","4.1834","0.083668","191.8"
"6.42327","4311.75","4.2056","0.084112","192.7"
"6.45322","4315.14","4.2295","0.08459","193.6"
"6.48321","4318.96","4.2482","0.084964","194.5"
"6.51325","4322.76","4.2697","0.085394","195.4"
"6.54334","4326.88","4.2922","0.085844","196.3"
"6.57324","4330.09","4.313","0.08626","197.2"
"6.60324","4333.04","4.3384","0.086768","198.1"
"6.63332","4336.9","4.3606","0.087212","199"
"6.66327","4340.28","4.3825","0.08765","199.9"
"6.69322","4343.64","4.4035","0.08807","200.8"
"6.72326","4347.01","4.4232","0.088464","201.7"
"6.75325","4350.19","4.4477","0.088954","202.6"
"6.78325","4353.37","4.4684","0.089368","203.5"
"6.81329","4357.5","4.4886","0.089772","204.4"
"6.84328","4360.48","4.5116","0.090232","205.3"
"6.87323","4363.39","4.5296","0.090592","206.2"
"6.90322","4366.81","4.5558","0.091116","207.1"
"6.93326","4370.18","4.5765","0.09153","208"
"6.9633","4373.35","4.6016","0.092032","208.9"
"6.9932","4376.28","4.6242","0.092484","209.8"
"7.02325","4379.74","4.6448","0.092896","210.7"
"7.05329","4383.12","4.667","0.09334","211.6"
"7.08328","4385.96","4.6925","0.09385","212.5"
"7.11323","4389.03","4.7124","0.094248","213.4"
"7.14327","4392.22","4.7328","0.094656","214.3"
"7.17326","4395.21","4.7543","0.095086","215.2"
"7.20321","4397.91","4.7784","0.095568","216.1"
"7.23325","4401.39","4.7972","0.095944","217"
"7.26324","4404.49","4.818","0.09636","217.9"
"7.29324","4407.23","4.8426","0.096852","218.8"
"7.32323","4409.96","4.8663","0.097326","219.7"
"7.35327","4412.98","4.8875","0.09775","220.6"
"7.38331","4416.25","4.9116","0.098232","221.5"
"7.41321","4418.76","4.9332","0.098664","222.4"
"7.44321","4421.48","4.9526","0.099052","223.3"
"7.47329","4425.11","4.9732","0.099464","224.2"
"7.50324","4427.7","4.9965","0.09993","225.1"
"7.53324","4430.22","5.0181","0.100362","226"
"7.56328","4433.42","5.0403","0.100806","226.9"
"7.59327","4436.21","5.0613","0.101226","227.8"
"7.62322","4438.69","5.0823","0.101646","228.7"
"7.65326","4441.56","5.1079","0.102158","229.6"
"7.6833","4444.96","5.1294","0.102588","230.5"
"7.71325","4447.34","5.1544","0.103088","231.4"
"7.74324","4449.63","5.1741","0.103482","232.3"
"7.77323","4452.62","5.1968","0.103936","233.2"
"7.80332","4455.8","5.2169","0.104338","234.1"
"7.83322","4457.78","5.2388","0.104776","235"
"7.86317","4460","5.2665","0.10533","235.9"
"7.89326","4463.12","5.2859","0.105718","236.8"
"7.9233","4465.95","5.3068","0.106136","237.7"
"7.9532","4468.29","5.3337","0.106674","238.6"
"7.98324","4471.17","5.3511","0.107022","239.5"
"8.01328","4473.82","5.3802","0.107604","240.4"
"8.04327","4476","5.3964","0.107928","241.3"
"8.07327","4478.34","5.4165","0.10833","242.2"
"8.10326","4480.84","5.439","0.10878","243.1"
"8.13325","4483.48","5.4628","0.109256","244"
"8.16325","4485.96","5.4861","0.109722","244.9"
"8.19324","4488.33","5.5054","0.110108","245.8"
"8.22333","4491.15","5.525","0.1105","246.7"
"8.25328","4493.48","5.5469","0.110938","247.6"
"8.28322","4495.52","5.5674","0.111348","248.5"
"8.31327","4498.16","5.5912","0.111824","249.4"
"8.34326","4500.41","5.6166","0.112332","250.3"
"8.37325","4502.56","5.6354","0.112708","251.2"
"8.4032","4504.91","5.6538","0.113076","252.1"
"8.43324","4507.43","5.6792","0.113584","253"
"8.46323","4509.82","5.7016","0.114032","253.9"
"8.49323","4512.31","5.7248","0.114496","254.8"
"8.52327","4514.66","5.7448","0.114896","255.7"
"8.55326","4516.61","5.7636","0.115272","256.6"
"8.58321","4518.78","5.7851","0.115702","257.5"
"8.6132","4521.42","5.8084","0.116168","258.4"
"8.64329","4524.16","5.8302","0.116604","259.3"
"8.67324","4525.81","5.8544","0.117088","260.2"
"8.70323","4527.85","5.8744","0.117488","261.1"
"8.73327","4530.3","5.8982","0.117964","262"
"8.76331","4532.78","5.9194","0.118388","262.9"
"8.79326","4534.76","5.9418","0.118836","263.8"
"8.82321","4536.94","5.9636","0.119272","264.7"
"8.85325","4539.19","5.9837","0.119674","265.6"
"8.88324","4541.04","6.002","0.12004","266.5"
"8.91324","4543.09","6.0289","0.120578","267.4"
"8.94323","4545.61","6.0493","0.120986","268.3"
"8.97327","4547.79","6.0724","0.121448","269.2"
"9.00327","4549.83","6.091","0.12182","270.1"
"9.03321","4551.78","6.1107","0.122214","271"
"9.0633","4554.34","6.1361","0.122722","271.9"
"9.09325","4555.78","6.1571","0.123142","272.8"
"9.12319","4557.53","6.18","0.1236","273.7"
"9.15324","4559.74","6.2","0.124","274.6"
"9.18332","4562.23","6.2237","0.124474","275.5"
"9.21327","4564.09","6.2428","0.124856","276.4"
"9.24322","4565.79","6.2675","0.12535","277.3"
"9.2733","4568.33","6.2867","0.125734","278.2"
"9.3033","4570.19","6.3078","0.126156","279.1"
"9.33325","4572.06","6.3294","0.126588","280"
"9.36324","4573.77","6.3497","0.126994","280.9"
"9.39328","4576.33","6.3796","0.127592","281.8"
"9.42323","4577.76","6.3977","0.127954","282.7"
"9.45322","4579.25","6.4206","0.128412","283.6"
"9.48331","4581.66","6.4421","0.128842","284.5"
"9.5133","4583.84","6.4632","0.129264","285.4"
"9.5432","4585.15","6.4833","0.129666","286.3"
"9.57324","4587.35","6.5084","0.130168","287.2"
"9.60329","4589.33","6.5263","0.130526","288.1"
"9.63328","4590.94","6.5494","0.130988","289"
"9.66323","4592.75","6.5717","0.131434","289.9"
"9.69327","4594.77","6.5925","0.13185","290.8"
"9.72331","4597.04","6.615","0.1323","291.7"
"9.75326","4598.72","6.6361","0.132722","292.6"
"9.78325","4600.34","6.6585","0.13317","293.5"
"9.81329","4602.28","6.68","0.1336","294.4"
"9.84328","4603.98","6.701","0.13402","295.3"
"9.87318","4605.53","6.7251","0.134502","296.2"
"9.90327","4607.79","6.7458","0.134916","297.1"
"9.93326","4609.43","6.7685","0.13537","298"
"9.96321","4611.04","6.7887","0.135774","298.9"
"9.99325","4612.98","6.8099","0.136198","299.8"
"10.0232","4614.69","6.8304","0.136608","300.7"
"10.0533","4616.22","6.8511","0.137022","301.6"
"10.0832","4617.76","6.8744","0.137488","302.5"
"10.1132","4619.89","6.8985","0.13797","303.4"
"10.1433","4621.67","6.9184","0.138368","304.3"
"10.1733","4623.23","6.9423","0.138846","305.2"
"10.2033","4625.05","6.963","0.13926","306.1"
"10.2333","4627.14","6.9831","0.139662","307"
"10.2633","4628.49","7.0081","0.140162","307.9"
"10.2932","4629.98","7.0285","0.14057","308.8"
"10.3233","4631.99","7.0509","0.141018","309.7"
"10.3533","4633.89","7.07","0.1414","310.6"
"10.3832","4635.26","7.0894","0.141788","311.5"
"10.4132","4636.83","7.1133","0.142266","312.4"
"10.4433","4638.91","7.1387","0.142774","313.3"
"10.4733","4640.53","7.1619","0.143238","314.2"
"10.5032","4641.54","7.1821","0.143642","315.1"
"10.5332","4643.43","7.2005","0.14401","316"
"10.5633","4645.24","7.2212","0.144424","316.9"
"10.5933","4646.52","7.2424","0.144848","317.8"
"10.6232","4647.8","7.2674","0.145348","318.7"
"10.6533","4650.27","7.2886","0.145772","319.6"
"10.6833","4651.36","7.3053","0.146106","320.5"
"10.7132","4652.57","7.3287","0.146574","321.4"
"10.7433","4654.52","7.3521","0.147042","322.3"
"10.7733","4656.4","7.3756","0.147512","323.2"
"10.8032","4657.69","7.3984","0.147968","324.1"
"10.8332","4659.18","7.4169","0.148338","325"
"10.8633","4660.81","7.4383","0.148766","325.9"
"10.8933","4662.84","7.4602","0.149204","326.8"
"10.9233","4664.05","7.4833","0.149666","327.7"
"10.9532","4665.51","7.5035","0.15007","328.6"
"10.9833","4667.46","7.5256","0.150512","329.5"
"11.0133","4669.05","7.549","0.15098","330.4"
"11.0432","4669.74","7.5687","0.151374","331.3"
"11.0733","4671.83","7.5926","0.151852","332.2"
"11.1033","4673.5","7.6152","0.152246","333.1"
"11.1332","4674.68","7.6373","0.152746","334"
"11.1633","4676.03","7.6573","0.153146","334.9"
"11.1933","4677.92","7.6789","0.153578","335.8"
"11.2232","4679.12","7.703","0.15406","336.7"
"11.2532","4680.34","7.7222","0.154444","337.6"
"11.2833","4681.9","7.7454","0.154908","338.5"
"11.3133","4684.01","7.7695","0.15539","339.4"
"11.3433","4685.12","7.7865","0.15573","340.3"
"11.3732","4686.48","7.8096","0.156192","341.2"
"11.4033","4688.5","7.8296","0.156592","342.1"
"11.4333","4689.97","7.8549","0.157098","343"
"11.4632","4691.15","7.8816","0.157632","343.9"
"11.4932","4692.52","7.9001","0.158002","344.8"
"11.5233","4694.01","7.922","0.15844","345.7"
"11.5532","4695.45","7.9465","0.15893","346.6"
"11.5833","4696.97","7.9653","0.159306","347.5"
"11.6133","4696.72","7.9923","0.159846","348.4"
"11.6432","4698.19","8.0074","0.160148","349.3"
"11.6732","4699.56","8.0303","0.160606","350.2"
"11.7032","4700.87","8.0519","0.161038","351.1"
"11.7333","4702.54","8.0755","0.16151","352"
"11.7632","4703.85","8.0951","0.161902","352.9"
"11.7932","4705.11","8.1185","0.16237","353.8"
"11.8233","4707.21","8.1343","0.162686","354.7"
"11.8533","4708.44","8.1634","0.163268","355.6"
"11.8832","4709.6","8.1844","0.163688","356.5"
"11.9132","4711.25","8.2055","0.16411","357.4"
"11.9433","4712.55","8.2249","0.164498","358.3"
"11.9733","4713.31","8.2469","0.164938","359.2"
"12.0033","4714.9","8.2683","0.165366","360.1"
"12.0333","4716.4","8.2931","0.165862","361"
"12.0633","4717.58","8.3134","0.166268","361.9"
"12.0932","4718.66","8.3342","0.166684","362.8"
"12.1232","4719.88","8.3552","0.167104","363.7"
"12.1533","4721.98","8.376","0.16752","364.6"
"12.1833","4722.82","8.4041","0.168082","365.5"
"12.2132","4723.72","8.4247","0.168494","366.4"
"12.2433","4725.75","8.4482","0.168964","367.3"
"12.2733","4726.75","8.4659","0.169318","368.2"
"12.3032","4727.43","8.4875","0.16975","369.1"
"12.3332","4728.81","8.5128","0.170256","370"
"12.3633","4730.37","8.5372","0.170744","370.9"
"12.3933","4732.09","8.5562","0.171124","371.8"
"12.4233","4733.1","8.5756","0.171512","372.7"
"12.4533","4734.04","8.5962","0.171924","373.6"
"12.4833","4735.56","8.6174","0.172348","374.5"
"12.5133","4736.34","8.6471","0.172942","375.4"
"12.5432","4737.56","8.6667","0.173334","376.3"
"12.5733","4739.48","8.6877","0.173754","377.2"
"12.6032","4740.54","8.709","0.17418","378.1"
"12.6332","4741.01","8.7319","0.174638","379"
"12.6633","4742.55","8.7526","0.175052","379.9"
"12.6933","4744.07","8.7764","0.175528","380.8"
"12.7232","4744.86","8.799","0.17598","381.7"
"12.7532","4745.67","8.8155","0.17631","382.6"
"12.7833","4747.57","8.838","0.17676","383.5"
"12.8132","4748.95","8.859","0.17718","384.4"
"12.8432","4749.67","8.8822","0.177644","385.3"
"12.8732","4750.81","8.9075","0.17815","386.2"
"12.9033","4752.43","8.9267","0.178534","387.1"
"12.9333","4753.61","8.9496","0.178992","388"
"12.9632","4754.71","8.9723","0.179446","388.9"
"12.9933","4756.1","8.9948","0.179896","389.8"
"13.0233","4757.21","9.0191","0.180382","390.7"
"13.0532","4758.04","9.0366","0.180732","391.6"
"13.0832","4759.51","9.057","0.18114","392.5"
"13.1133","4760.8","9.0819","0.181638","393.4"
"13.1433","4761.91","9.1054","0.182108","394.3"
"13.1732","4762.51","9.1279","0.182558","395.2"
"13.2033","4763.69","9.1505","0.18301","396.1"
"13.2333","4765.08","9.1724","0.183448","397"
"13.2632","4766.03","9.195","0.1839","397.9"
"13.2932","4767.4","9.2167","0.184334","398.8"
"13.3232","4768.36","9.2399","0.184798","399.7"
"13.3532","4769.53","9.2631","0.185262","400.6"
"13.3832","4770.56","9.2819","0.185638","401.5"
"13.4133","4771.8","9.3038","0.186076","402.4"
"13.4433","4772.98","9.3237","0.186474","403.3"
"13.4732","4773.87","9.35","0.187","404.2"
"13.5032","4775.22","9.3696","0.187392","405.1"
"13.5333","4776.1","9.3951","0.187902","406"
"13.5633","4777.24","9.4131","0.188262","406.9"
"13.5932","4778.06","9.4373","0.188746","407.8"
"13.6232","4779.44","9.4598","0.189196","408.7"
"13.6533","4780.78","9.482","0.18964","409.6"
"13.6833","4781.62","9.5082","0.190164","410.5"
"13.7132","4782.59","9.5258","0.190516","411.4"
"13.7432","4783.79","9.5489","0.190978","412.3"
"13.7732","4784.64","9.5711","0.191422","413.2"
"13.8032","4785.54","9.5952","0.191904","414.1"
"13.8333","4787.42","9.6143","0.192286","415"
"13.8633","4788.4","9.6396","0.192792","415.9"
"13.8932","4788.74","9.6603","0.193206","416.8"
"13.9233","4789.84","9.6816","0.193632","417.7"
"13.9533","4791.49","9.7044","0.194088","418.6"
"13.9833","4792.34","9.7296","0.194592","419.5"
"14.0132","4793.13","9.751","0.19502","420.4"
"14.0432","4794.41","9.7742","0.195484","421.3"
"14.0733","4795.83","9.7957","0.195914","422.2"
"14.1033","4796.5","9.8167","0.196334","423.1"
"14.1332","4797.11","9.836","0.19672","424"
"14.1633","4798.76","9.8615","0.19723","424.9"
"14.1932","4799.81","9.8828","0.197656","425.8"
"14.2232","4800.11","9.9048","0.198096","426.7"
"14.2533","4801.64","9.9335","0.19867","427.6"
"14.2833","4802.9","9.952","0.19904","428.5"
"14.3132","4803.56","9.9732","0.199464","429.4"
"14.3432","4804.62","9.9966","0.199932","430.3"
"14.3733","4805.98","10.0179","0.200358","431.2"
"14.4033","4807.1","10.0407","0.200814","432.1"
"14.4332","4807.39","10.0614","0.201228","433"
"14.4632","4808.23","10.0837","0.201674","433.9"
"14.4933","4810.04","10.107","0.20214","434.8"
"14.5233","4810.83","10.1283","0.202566","435.7"
"14.5532","4811.91","10.1513","0.203026","436.6"
"14.5833","4813.08","10.1717","0.203434","437.5"
"14.6133","4813.92","10.1944","0.203888","438.4"
"14.6432","4814.55","10.2183","0.204366","439.3"
"14.6732","4815.44","10.2424","0.204848","440.2"
"14.7033","4816.81","10.2628","0.205256","441.1"
"14.7332","4817.52","10.2835","0.20567","442"
"14.7632","4818.34","10.3077","0.206154","442.9"
"14.7932","4819.53","10.3313","0.206626","443.8"
"14.8233","4820.75","10.3518","0.207036","444.7"
"14.8533","4821.47","10.3763","0.207526","445.6"
"14.8832","4822.27","10.3973","0.207946","446.5"
"14.9133","4823.29","10.4204","0.208408","447.4"
"14.9433","4824.15","10.4428","0.208856","448.3"
"14.9732","4825.13","10.4617","0.209234","449.2"
"15.0032","4826.42","10.4884","0.209768","450.1"
"15.0333","4827.18","10.5098","0.210196","451"
"15.0633","4828.26","10.534","0.21068","451.9"
"15.0933","4829.4","10.5546","0.211092","452.8"
"15.1233","4830.16","10.5761","0.211522","453.7"
"15.1533","4830.9","10.5993","0.211986","454.6"
"15.1832","4831.95","10.6196","0.212392","455.5"
"15.2132","4833.04","10.6414","0.212828","456.4"
"15.2433","4834.04","10.6638","0.213276","457.3"
"15.2732","4834.66","10.6852","0.213704","458.2"
"15.3032","4835.71","10.7093","0.214186","459.1"
"15.3333","4836.73","10.7343","0.214686","460"
"15.3633","4837.41","10.7574","0.215148","460.9"
"15.3932","4838.19","10.7786","0.215572","461.8"
"15.4232","4839.31","10.7991","0.215982","462.7"
"15.4532","4840.48","10.8242","0.216484","463.6"
"15.4832","4840.72","10.8446","0.216892","464.5"
"15.5133","4841.69","10.8654","0.217308","465.4"
"15.5433","4842.96","10.8883","0.217766","466.3"
"15.5733","4843.87","10.9082","0.218164","467.2"
"15.6032","4844.51","10.9327","0.218654","468.1"
"15.6332","4845.46","10.9545","0.21909","469"
"15.6633","4846.92","10.9801","0.219602","469.9"
"15.6933","4846.91","11.002","0.22004","470.8"
"15.7232","4847.78","11.0213","0.220426","471.7"
"15.7533","4849.11","11.045","0.2209","472.6"
"15.7833","4850.01","11.0655","0.22131","473.5"
"15.8132","4850.55","11.0886","0.221772","474.4"
"15.8432","4851.31","11.1084","0.222168","475.3"
"15.8733","4852.61","11.1329","0.222658","476.2"
"15.9032","4852.97","11.1529","0.223058","477.1"
"15.9332","4853.74","11.1747","0.223494","478"
"15.9632","4854.79","11.195","0.2239","478.9"
"15.9933","4856.15","11.2185","0.22437","479.8"
"16.0232","4856.23","11.2421","0.224842","480.7"
"16.0532","4857.08","11.2649","0.225298","481.6"
"16.0833","4858.22","11.2879","0.225758","482.5"
"16.1133","4859.07","11.3112","0.226224","483.4"
"16.1432","4859.67","11.3301","0.226602","484.3"
"16.1733","4860.59","11.3557","0.227114","485.2"
"16.2033","4861.78","11.3764","0.227528","486.1"
"16.2333","4862.67","11.3964","0.227928","487"
"16.2632","4863.03","11.4197","0.228394","487.9"
"16.2932","4863.97","11.4419","0.228838","488.8"
"16.3233","4865.24","11.4639","0.229278","489.7"
"16.3532","4865.85","11.485","0.2297","490.6"
"16.3832","4866.48","11.5127","0.230254","491.5"
"16.4133","4867.15","11.5337","0.230674","492.4"
"16.4432","4867.68","11.5543","0.231086","493.3"
"16.4732","4868.92","11.5803","0.231606","494.2"
"16.5033","4870.27","11.6001","0.232002","495.1"
"16.5333","4870.82","11.6204","0.232408","496"
"16.5632","4871.11","11.646","0.23292","496.9"
"16.5932","4872.1","11.6652","0.233304","497.8"
"16.6233","4873","11.6866","0.233732","498.7"
"16.6533","4873.79","11.7101","0.234202","499.6"
"16.6832","4874.86","11.7358","0.234624","500.5"
"16.7133","4875.64","11.7577","0.235154","501.4"
"16.7433","4876.17","11.7794","0.235588","502.3"
"16.7733","4877.05","11.8004","0.236008","503.2"
"16.8032","4878.12","11.8213","0.236426","504.1"
"16.8333","4878.61","11.8448","0.236896","505"
"16.8633","4879.34","11.8663","0.237326","505.9"
"16.8932","4879.93","11.8868","0.237736","506.8"
"16.9233","4881.33","11.9118","0.238236","507.7"
"16.9533","4881.875","11.9305","0.23861","508.6"
"16.9832","4882.22","11.9535","0.23907","509.5"
"17.0132","4883.4","11.9767","0.239534","510.4"
"17.0433","4884.23","12.0043","0.239946","511.3"
"17.0733","4884.6","12.021","0.24042","512.2"
"17.1032","4885.43","12.0419","0.240838","513.1"
"17.1333","4886.3","12.0637","0.241274","514"
"17.1633","4887.33","12.0866","0.241732","514.9"
"17.1932","4888.03","12.1121","0.242242","515.8"
"17.2232","4889.13","12.1308","0.242616","516.7"
"17.2533","4890.05","12.1558","0.243116","517.6"
"17.2833","4890.25","12.1745","0.24349","518.5"
"17.3132","4890.98","12.1957","0.243914","519.4"
"17.3433","4892.01","12.2232","0.244464","520.3"
"17.3733","4892.95","12.2432","0.244864","521.2"
"17.4032","4893","12.2665","0.24533","522.1"
"17.4332","4893.94","12.2873","0.245746","523"
"17.4633","4894.97","12.3109","0.246218","523.9"
"17.4933","4895.46","12.3339","0.246678","524.8"
"17.5232","4896.65","12.3558","0.247116","525.7"
"17.5532","4896.9","12.3808","0.247616","526.6"
"17.5833","4897.82","12.4001","0.248002","527.5"
"17.6133","4898.56","12.4209","0.248418","528.4"
"17.6432","4899.01","12.4437","0.248874","529.3"
"17.6733","4900.24","12.4646","0.249292","530.2"
"17.7033","4901.01","12.4879","0.249758","531.1"
"17.7332","4901.38","12.5094","0.250188","532"
"17.7633","4902.28","12.5288","0.250576","532.9"
"17.7933","4903.13","12.557","0.25114","533.8"
"17.8233","4903.53","12.5745","0.25149","534.7"
"17.8532","4904.1","12.597","0.25194","535.6"
"17.8833","4905.09","12.6226","0.252452","536.5"
"17.9133","4906.41","12.6394","0.252788","537.4"
"17.9432","4906.46","12.6629","0.253258","538.3"
"17.9732","4906.88","12.6857","0.253714","539.2"
"18.0033","4908.19","12.7097","0.254194","540.1"
"18.0333","4908.7","12.7314","0.254628","541"
"18.0632","4909.29","12.7528","0.255056","541.9"
"18.0933","4910.34","12.7749","0.255464","542.8"
"18.1232","4911.37","12.7985","0.25597","543.7"
"18.1532","4911.72","12.8193","0.256386","544.6"
"18.1832","4912.55","12.8464","0.256928","545.5"
"18.2133","4913.07","12.864","0.25728","546.4"
"18.2433","4913.79","12.8869","0.257738","547.3"
"18.2733","4914.32","12.9095","0.25819","548.2"
"18.3033","4915.52","12.9337","0.258674","549.1"
"18.3333","4916.25","12.9528","0.259056","550"
"18.3632","4916.7","12.9729","0.259458","550.9"
"18.3932","4917.42","12.9943","0.259886","551.8"
"18.4233","4918.07","13.0179","0.260358","552.7"
"18.4533","4918.93","13.0456","0.260784","553.6"
"18.4832","4919.71","13.0627","0.261254","554.5"
"18.5133","4920.2","13.0844","0.261688","555.4"
"18.5433","4920.82","13.1068","0.262136","556.3"
"18.5732","4921.14","13.1291","0.262582","557.2"
"18.6032","4922.22","13.15","0.263","558.1"
"18.6332","4922.75","13.175","0.2635","559"
"18.6632","4923.15","13.1974","0.263948","559.9"
"18.6932","4924.12","13.2207","0.264414","560.8"
"18.7233","4925.01","13.2368","0.264736","561.7"
"18.7533","4925.98","13.2622","0.265244","562.6"
"18.7833","4926.09","13.284","0.26568","563.5"
"18.8132","4926.76","13.309","0.26618","564.4"
"18.8433","4927.56","13.333","0.26666","565.3"
"18.8733","4927.97","13.35","0.267","566.2"
"18.9032","4928.29","13.3721","0.267442","567.1"
"18.9332","4929.3","13.3941","0.267882","568"
"18.9633","4930.39","13.4171","0.268342","568.9"
"18.9933","4930.67","13.4375","0.26875","569.8"
"19.0233","4931.49","13.4627","0.269254","570.7"
"19.0533","4932.31","13.4825","0.26965","571.6"
"19.0832","4932.64","13.5036","0.270072","572.5"
"19.1132","4932.63","13.5267","0.270534","573.4"
"19.1432","4933.84","13.5532","0.270958","574.3"
"19.1733","4934.85","13.5724","0.271448","575.2"
"19.2032","4935.26","13.5924","0.271848","576.1"
"19.2332","4935.57","13.6151","0.272302","577"
"19.2633","4936.83","13.6354","0.272708","577.9"
"19.2933","4937.45","13.6569","0.273138","578.8"
"19.3232","4937.87","13.684","0.27368","579.7"
"19.3532","4938.71","13.7063","0.274126","580.6"
"19.3833","4939.71","13.7211","0.274422","581.5"
"19.4133","4940.52","13.7462","0.274924","582.4"
"19.4433","4941","13.7678","0.275356","583.3"
"19.4733","4941.51","13.7913","0.275826","584.2"
"19.5033","4942.31","13.8148","0.276296","585.1"
"19.5332","4942.76","13.8349","0.276698","586"
"19.5632","4943.24","13.858","0.27716","586.9"
"19.5933","4944.66","13.8793","0.277586","587.8"
"19.6232","4945.06","13.8984","0.277968","588.7"
"19.6532","4945.4","13.9244","0.278488","589.6"
"19.6833","4946.38","13.9424","0.278848","590.5"
"19.7133","4947.17","13.965","0.2793","591.4"
"19.7432","4947.99","13.9909","0.279818","592.3"
"19.7732","4948.03","14.01","0.2802","593.2"
"19.8033","4948.92","14.0304","0.280608","594.1"
"19.8333","4949.74","14.0493","0.280986","595"
"19.8632","4950.375","14.0744","0.281488","595.9"
"19.8933","4951.17","14.096","0.28192","596.8"
"19.9233","4952.13","14.1245","0.28249","597.7"
"19.9533","4952.69","14.1416","0.282832","598.6"
"19.9832","4953.25","14.165","0.2833","599.5"
"20.0133","4953.71","14.1853","0.283706","600.4"
"20.0432","4954.29","14.2063","0.284126","601.3"
"20.0732","4954.99","14.2265","0.28453","602.2"
"20.1032","4955.95","14.2524","0.285048","603.1"
"20.1333","4956.51","14.2685","0.28537","604"
"20.1633","4957.03","14.2899","0.285798","604.9"
"20.1932","4957.81","14.3135","0.28627","605.8"
"20.2232","4958.59","14.3399","0.286798","606.7"
"20.2533","4958.88","14.3604","0.287208","607.6"
"20.2832","4959.44","14.3802","0.287604","608.5"
"20.3132","4960.02","14.4023","0.288046","609.4"
"20.3433","4960.73","14.4196","0.288392","610.3"
"20.3733","4961.21","14.4484","0.288968","611.2"
"20.4032","4961.88","14.4645","0.28929","612.1"
"20.4333","4963","14.4885","0.28977","613"
"20.4633","4963.2","14.5096","0.290192","613.9"
"20.4932","4963.29","14.5324","0.290648","614.8"
"20.5233","4964.35","14.5533","0.291066","615.7"
"20.5533","4964.94","14.5781","0.291562","616.6"
"20.5833","4965.13","14.5969","0.291938","617.5"
"20.6132","4964.58","14.6176","0.292352","618.4"
"20.6433","4966.03","14.6419","0.292838","619.3"
"20.6733","4966.64","14.6596","0.293192","620.2"
"20.7032","4967.09","14.6851","0.293702","621.1"
"20.7332","4967.44","14.7037","0.294074","622"
"20.7633","4968.45","14.7216","0.294432","622.9"
"20.7932","4968.65","14.7452","0.294904","623.8"
"20.8232","4969.17","14.7654","0.295308","624.7"
"20.8533","4970.2","14.789","0.29578","625.6"
"20.8833","4971.1","14.8111","0.296222","626.5"
"20.9132","4971.2","14.833","0.29666","627.4"
"20.9432","4971.92","14.8531","0.297062","628.3"
"20.9733","4972.78","14.8728","0.297456","629.2"
"21.0033","4973.5","14.8941","0.297882","630.1"
"21.0332","4973.58","14.919","0.29838","631"
"21.0632","4973.29","14.9389","0.298778","631.9"
"21.0933","4974.44","14.9572","0.299144","632.8"
"21.1232","4974.94","14.9766","0.299532","633.7"
"21.1532","4975.58","14.9995","0.29999","634.6"
"21.1833","4976.32","15.0209","0.300418","635.5"
"21.2133","4976.74","15.0422","0.300844","636.4"
"21.2432","4976.72","15.0653","0.301306","637.3"
"21.2733","4977.5","15.0848","0.301696","638.2"
"21.3033","4978.4","15.1064","0.302128","639.1"
"21.3332","4978.36","15.125","0.3025","640"
"21.3632","4977.89","15.1454","0.302908","640.9"
"21.3933","4978.63","15.1676","0.303352","641.8"
"21.4233","4979.35","15.1881","0.303762","642.7"
"21.4532","4979.79","15.2056","0.304112","643.6"
"21.4832","4980.41","15.2286","0.304572","644.5"
"21.5133","4981.2","15.2495","0.30499","645.4"
"21.5433","4981.41","15.2704","0.305408","646.3"
"21.5732","4981.83","15.292","0.30584","647.2"
"21.6032","4982.31","15.3125","0.30625","648.1"
"21.6332","4983.08","15.3324","0.306648","649"
"21.6632","4982.65","15.3522","0.307044","649.9"
"21.6933","4983.4","15.3727","0.307454","650.8"
"21.7233","4984.18","15.393","0.30786","651.7"
"21.7532","4984.24","15.4108","0.308216","652.6"
"21.7832","4985.04","15.4329","0.308658","653.5"
"21.8133","4985.74","15.4546","0.309092","654.4"
"21.8433","4986.08","15.4738","0.309476","655.3"
"21.8732","4986.31","15.4951","0.309902","656.2"
"21.9032","4986.98","15.5196","0.310392","657.1"
"21.9333","4987.63","15.5396","0.310792","658"
"21.9633","4987.79","15.5585","0.31117","658.9"
"21.9932","4988.375","15.5768","0.311536","659.8"
"22.0233","4988.97","15.596","0.31192","660.7"
"22.0533","4988.86","15.6187","0.312374","661.6"
"22.0832","4987.86","15.6403","0.312806","662.5"
"22.1133","4988.4","15.6581","0.313162","663.4"
"22.1433","4989.14","15.6775","0.31355","664.3"
"22.1732","4988.67","15.6968","0.313936","665.2"
"22.2032","4989.38","15.7208","0.314416","666.1"
"22.2333","4990.08","15.7365","0.31473","667"
"22.2633","4991.01","15.7602","0.315204","667.9"
"22.2932","4990.83","15.777","0.31554","668.8"
"22.3232","4990.96","15.7988","0.315976","669.7"
"22.3533","4991.97","15.8144","0.316288","670.6"
"22.3833","4991.87","15.8372","0.316744","671.5"
"22.4132","4992.27","15.8583","0.317166","672.4"
"22.4433","4993.12","15.8762","0.317524","673.3"
"22.4733","4993.83","15.8963","0.317926","674.2"
"22.5033","4993.76","15.9158","0.318316","675.1"
"22.5332","4994.57","15.9345","0.31869","676"
"22.5633","4995.41","15.9551","0.319102","676.9"
"22.5933","4995.65","15.9755","0.31951","677.8"
"22.6232","4995.88","15.9953","0.319906","678.7"
"22.6533","4996.35","16.014","0.32028","679.6"
"22.6833","4997.47","16.034","0.32068","680.5"
"22.7132","4997.22","16.052","0.32104","681.4"
"22.7432","4997.29","16.072","0.32144","682.3"
"22.7733","4998.32","16.0919","0.321838","683.2"
"22.8033","4998.79","16.1115","0.32223","684.1"
"22.8332","4999.07","16.1297","0.322594","685"
"22.8632","4999.81","16.1491","0.322982","685.9"
"22.8933","5000.43","16.1696","0.323392","686.8"
"22.9233","5000.66","16.1884","0.323768","687.7"
"22.9533","5000.99","16.2076","0.324152","688.6"
"22.9832","5001.61","16.2294","0.324588","689.5"
"23.0133","5002.06","16.2475","0.32495","690.4"
"23.0432","5002.55","16.2675","0.32535","691.3"
"23.0732","5002.8","16.287","0.32574","692.2"
"23.1033","5003.53","16.3055","0.32611","693.1"
"23.1333","5003.95","16.3251","0.326502","694"
"23.1632","5004.09","16.3433","0.326866","694.9"
"23.1933","5004.74","16.3637","0.327274","695.8"
"23.2233","5005.08","16.3838","0.327676","696.7"
"23.2532","5005.56","16.4014","0.328028","697.6"
"23.2832","5006.26","16.4214","0.328428","698.5"
"23.3132","5006.53","16.4387","0.328774","699.4"
"23.3433","5007.06","16.4615","0.32923","700.3"
"23.3733","5007.5","16.4821","0.329642","701.2"
"23.4033","5007.83","16.5012","0.330024","702.1"
"23.4333","5008.46","16.5204","0.330408","703"
"23.4632","5008.71","16.5416","0.330832","703.9"
"23.4932","5009.68","16.556","0.33112","704.8"
"23.5233","5010.41","16.5742","0.331484","705.7"
"23.5533","5010.43","16.5964","0.331928","706.6"
"23.5832","5010.67","16.6149","0.332298","707.5"
"23.6133","5011.52","16.6329","0.332658","708.4"
"23.6433","5011.96","16.6511","0.333022","709.3"
"23.6732","5012.19","16.6744","0.333488","710.2"
"23.7032","5012.85","16.6934","0.333868","711.1"
"23.7332","5013.46","16.7137","0.334274","712"
"23.7632","5013.93","16.7337","0.334674","712.9"
"23.7932","5014.25","16.7515","0.33503","713.8"
"23.8232","5015.03","16.769","0.33538","714.7"
"23.8533","5015.86","16.7863","0.335726","715.6"
"23.8833","5015.78","16.808","0.33616","716.5"
"23.9132","5015.85","16.8299","0.336598","717.4"
"23.9433","5017.05","16.8471","0.336942","718.3"
"23.9732","5017.05","16.8687","0.337374","719.2"
"24.0032","5017.1","16.8896","0.337792","720.1"
"24.0333","5018.45","16.9071","0.338142","721"
"24.0633","5018.89","16.927","0.33854","721.9"
"24.0933","5019.18","16.946","0.33892","722.8"
"24.1233","5019.63","16.9654","0.339308","723.7"
"24.1533","5020","16.9864","0.339728","724.6"
"24.1833","5019.91","17.0066","0.340132","725.5"
"24.2132","5020.2","17.0224","0.340448","726.4"
"24.2432","5020.69","17.0412","0.340824","727.3"
"24.2733","5021.64","17.0595","0.34119","728.2"
"24.3032","5021.92","17.0804","0.341608","729.1"
"24.3332","5021.92","17.0962","0.341924","730"
"24.3633","5023.41","17.1205","0.34241","730.9"
"24.3933","5023.54","17.1372","0.342744","731.8"
"24.4232","5023.48","17.1584","0.343168","732.7"
"24.4532","5023.96","17.1757","0.343514","733.6"
"24.4833","5024.87","17.1947","0.343894","734.5"
"24.5133","5025","17.2127","0.344254","735.4"
"24.5432","5025.33","17.2338","0.344676","736.3"
"24.5733","5026.06","17.253","0.34506","737.2"
"24.6033","5026.67","17.2712","0.345424","738.1"
"24.6333","5026.91","17.2885","0.34577","739"
"24.6632","5027.04","17.3086","0.346172","739.9"
"24.6933","5027.81","17.326","0.34652","740.8"
"24.7233","5028.47","17.3507","0.347014","741.7"
"24.7532","5028.6","17.366","0.34732","742.6"
"24.7833","5029.35","17.3866","0.347732","743.5"
"24.8133","5029.54","17.4069","0.348138","744.4"
"24.8432","5030.16","17.4285","0.34857","745.3"
"24.8732","5030.76","17.4455","0.34891","746.2"
"24.9033","5031.18","17.4662","0.349324","747.1"
"24.9333","5031.2","17.4837","0.349674","748"
"24.9632","5031.04","17.5027","0.350054","748.9"
"24.9932","5031.98","17.5204","0.350408","749.8"
"25.0233","5032.41","17.5413","0.350826","750.7"
"25.0533","5032.91","17.5582","0.351164","751.6"
"25.0832","5033.56","17.5796","0.351592","752.5"
"25.1133","5033.93","17.598","0.35196","753.4"
"25.1433","5034.07","17.6167","0.352334","754.3"
"25.1732","5034.21","17.6367","0.352734","755.2"
"25.2033","5035.42","17.6533","0.353066","756.1"
"25.2333","5035.92","17.6734","0.353468","757"
"25.2632","5035.88","17.6936","0.353872","757.9"
"25.2932","5036.25","17.7119","0.354238","758.8"
"25.3233","5036.73","17.7304","0.354608","759.7"
"25.3533","5037.52","17.748","0.35496","760.6"
"25.3832","5037.68","17.7659","0.355318","761.5"
"25.4132","5037.29","17.7901","0.355802","762.4"
"25.4433","5037.85","17.8067","0.356134","763.3"
"25.4733","5036.76","17.8249","0.356498","764.2"
"25.5032","5036.78","17.8427","0.356854","765.1"
"25.5332","5037.59","17.862","0.35724","766"
"25.5632","5038.07","17.8825","0.35765","766.9"
"25.5932","5038.21","17.8973","0.357946","767.8"
"25.6233","5039.13","17.9153","0.358306","768.7"
"25.6533","5039.66","17.9355","0.35871","769.6"
"25.6832","5039.61","17.9549","0.359098","770.5"
"25.7132","5040.01","17.9706","0.359412","771.4"
"25.7433","5040.75","17.9923","0.359846","772.3"
"25.7733","5041.68","18.0063","0.360126","773.2"
"25.8032","5041.44","18.0277","0.360554","774.1"
"25.8332","5041.68","18.0453","0.360906","775"
"25.8633","5042.51","18.0636","0.361272","775.9"
"25.8933","5042.65","18.0838","0.361676","776.8"
"25.9232","5042.91","18.1044","0.362088","777.7"
"25.9533","5043.58","18.1194","0.362388","778.6"
"25.9832","5043.99","18.142","0.36284","779.5"
"26.0132","5044.11","18.1544","0.363088","780.4"
"26.0432","5044.66","18.1748","0.363496","781.3"
"26.0733","5045.19","18.1943","0.363886","782.2"
"26.1033","5045.3","18.2147","0.364294","783.1"
"26.1332","5045.53","18.2334","0.364668","784"
"26.1632","5046.15","18.2514","0.365028","784.9"
"26.1933","5047.16","18.2687","0.365374","785.8"
"26.2232","5047.25","18.2876","0.365752","786.7"
"26.2532","5047.43","18.3028","0.366056","787.6"
"26.2833","5048.33","18.3222","0.366444","788.5"
"26.3133","5048.97","18.3408","0.366816","789.4"
"26.3432","5048.71","18.3581","0.367162","790.3"
"26.3732","5049.09","18.3779","0.367558","791.2"
"26.4033","5049.55","18.3994","0.367988","792.1"
"26.4333","5049.94","18.4157","0.368314","793"
"26.4632","5050.36","18.435","0.3687","793.9"
"26.4932","5049.46","18.4516","0.369032","794.8"
"26.5232","5050.15","18.471","0.36942","795.7"
"26.5532","5050.35","18.4894","0.369788","796.6"
"26.5832","5050.4","18.5114","0.370228","797.5"
"26.6133","5051.25","18.5239","0.370478","798.4"
"26.6432","5051.62","18.5403","0.370806","799.3"
"26.6732","5052.19","18.5601","0.371202","800.2"
"26.7033","5052.95","18.5785","0.37157","801.1"
"26.7333","5053.37","18.5972","0.371944","802"
"26.7632","5053.51","18.6179","0.372358","802.9"
"26.7933","5053.74","18.6353","0.372706","803.8"
"26.8233","5054.37","18.652","0.37304","804.7"
"26.8533","5054.59","18.6679","0.373358","805.6"
"26.8833","5054.14","18.6904","0.373808","806.5"
"26.9132","5054.48","18.7062","0.374124","807.4"
"26.9432","5054.54","18.726","0.37452","808.3"
"26.9732","5054.85","18.741","0.37482","809.2"
"27.0032","5055.28","18.7595","0.37519","810.1"
"27.0333","5054.62","18.7805","0.37561","811"
"27.0633","5054.31","18.7943","0.375886","811.9"
"27.0932","5054.11","18.8127","0.376254","812.8"
"27.1233","5055","18.8286","0.376572","813.7"
"27.1533","5055.27","18.8473","0.376946","814.6"
"27.1832","5055.36","18.8622","0.377244","815.5"
"27.2132","5056.03","18.8827","0.377654","816.4"
"27.2433","5056.58","18.8986","0.377972","817.3"
"27.2733","5056.88","18.9173","0.378346","818.2"
"27.3033","5057.11","18.9325","0.37865","819.1"
"27.3333","5057.39","18.9487","0.378974","820"
"27.3633","5056.23","18.9649","0.379298","820.9"
"27.3932","5055.97","18.9862","0.379724","821.8"
"27.4232","5056.17","18.9985","0.37997","822.7"
"27.4533","5057.24","19.0219","0.380438","823.6"
"27.4832","5057.58","19.0346","0.380692","824.5"
"27.5132","5056.16","19.0476","0.380952","825.4"
"27.5433","5056.77","19.0678","0.381356","826.3"
"27.5733","5057.21","19.0845","0.38169","827.2"
"27.6032","5057.31","19.0973","0.381946","828.1"
"27.6332","5057.54","19.1181","0.382362","829"
"27.6632","5058.3","19.1307","0.382614","829.9"
"27.6933","5058.52","19.147","0.38294","830.8"
"27.7232","5058.15","19.1676","0.383352","831.7"
"27.7533","5057.93","19.1786","0.383572","832.6"
"27.7833","5058.25","19.1957","0.383914","833.5"
"27.8133","5058.33","19.2107","0.384214","834.4"
"27.8432","5058.09","19.2265","0.38453","835.3"
"27.8733","5058.91","19.2469","0.384938","836.2"
"27.9033","5059.56","19.2607","0.385214","837.1"
"27.9332","5059.42","19.2749","0.385498","838"
"27.9632","5059.4","19.2917","0.385834","838.9"
"27.9933","5059.25","19.3089","0.386178","839.8"
"28.0233","5057.9","19.3175","0.38635","840.7"
"28.0532","5057.5","19.3356","0.386712","841.6"
"28.0832","5057.99","19.3459","0.386918","842.5"
"28.1133","5058.59","19.3639","0.387278","843.4"
"28.1432","5058.95","19.3783","0.387566","844.3"
"28.1732","5059.14","19.3931","0.387862","845.2"
"28.2033","5059.31","19.4112","0.388224","846.1"
"28.2333","5059.11","19.4283","0.388566","847"
"28.2632","5057.06","19.4452","0.388904","847.9"
"28.2933","5056.19","19.4588","0.389176","848.8"
"28.3233","5055.57","19.4716","0.389432","849.7"
"28.3532","5055.1","19.4834","0.389668","850.6"
"28.3832","5053.02","19.4984","0.389968","851.5"
"28.4133","5052.53","19.5129","0.390258","852.4"
"28.4433","5051.26","19.5247","0.390494","853.3"
"28.4732","5050.99","19.538","0.39076","854.2"
"28.5032","5051.22","19.5505","0.39101","855.1"
"28.5333","5051.3","19.5639","0.391278","856"
"28.5632","5050.91","19.577","0.39154","856.9"
"28.5932","5051.23","19.5906","0.391812","857.8"
"28.6232","5050.94","19.5998","0.391996","858.7"
"28.6532","5049.9","19.6117","0.392234","859.6"
"28.6832","5046.51","19.6217","0.392434","860.5"
"28.7133","5047.1","19.6329","0.392658","861.4"
"28.7433","5046.08","19.6451","0.392902","862.3"
"28.7732","5044.64","19.6558","0.393116","863.2"
"28.8032","5044.59","19.6689","0.393378","864.1"
"28.8333","5044.47","19.6748","0.393496","865"
"28.8633","5044.54","19.688","0.39376","865.9"
"28.8932","5044.29","19.7003","0.393986","866.8"
"28.9232","5044.37","19.7118","0.394236","867.7"
"28.9533","5044.3","19.7226","0.394452","868.6"
"28.9833","5044.36","19.7335","0.39467","869.5"
"29.0132","5043.64","19.7453","0.394906","870.4"
"29.0433","5044.15","19.7575","0.39515","871.3"
"29.0732","5044","19.7671","0.395342","872.2"
"29.1032","5043.63","19.7739","0.395478","873.1"
"29.1333","5044.39","19.7866","0.395732","874"
"29.1633","5044.84","19.7974","0.395948","874.9"
"29.1932","5044.13","19.808","0.39616","875.8"
"29.2232","5043.99","19.8188","0.396376","876.7"
"29.2532","5039.12","19.8261","0.396522","877.6"
"29.2833","5038.39","19.84","0.3968","878.5"
"29.3132","5038.01","19.8464","0.396928","879.4"
"29.3432","5037.98","19.8582","0.397164","880.3"
"29.3733","5031.98","19.8642","0.397284","881.2"
"29.4033","5033.46","19.876","0.39752","882.1"
"29.4332","5033.85","19.8842","0.397684","883"
"29.4633","5034.6","19.8929","0.397858","883.9"
"29.4933","5033.38","19.899","0.39798","884.8"
"29.5232","5030.07","19.9078","0.398156","885.7"
"29.5533","5030.99","19.9171","0.398342","886.6"
"29.5833","5032.01","19.9272","0.398544","887.5"
"29.6132","5032.99","19.9353","0.398706","888.4"
"29.6432","5033.31","19.9488","0.398976","889.3"
"29.6733","5033.94","19.954","0.39908","890.2"
"29.7033","5034.31","19.9629","0.399258","891.1"
"29.7332","5034.29","19.9732","0.399464","892"
"29.7632","5033.76","19.9811","0.399622","892.9"
"29.7933","5033.94","19.9892","0.399784","893.8"
"29.8233","5034.24","19.9971","0.399942","894.7"
"29.8532","5034.7","20.0111","0.400222","895.6"
"29.8833","5034.62","20.0196","0.400392","896.5"
"29.9133","5031.09","20.026","0.40052","897.4"
"29.9432","5027.39","20.0319","0.400638","898.3"
"29.9733","5027.17","20.0382","0.400764","899.2"
"30.0033","5027.06","20.0483","0.400966","900.1"
"30.0333","5026.22","20.0528","0.401056","901"
"30.0632","5018.62","20.0626","0.401252","901.9"
"30.0932","5017.77","20.0675","0.40135","902.8"
"30.1233","5017.92","20.0765","0.40153","903.7"
"30.1532","5016.1","20.0818","0.401636","904.6"
"30.1832","5003.32","20.0806","0.401612","905.5"
"30.2133","4999.16","20.0857","0.401714","906.4"
"30.2433","4994.3","20.0851","0.401702","907.3"
"30.2732","4976.23","20.088","0.401814","908.2"
"30.3032","4960.03","20.0899","0.401798","909.1"
"30.3333","4950.96","20.0933","0.401866","910"
"30.3632","4943.65","20.0925","0.40185","910.9"
"30.3932","4911.29","20.0872","0.401744","911.8"
"30.4233","4898.63","20.0845","0.40169","912.7"
"30.4533","4891.12","20.088","0.40176","913.6"
"30.4832","4882.91","20.0846","0.401692","914.5"
"30.5133","4873.41","20.0825","0.40165","915.4"
"30.5433","4865.49","20.0809","0.401618","916.3"
"30.5733","4853.23","20.0787","0.401574","917.2"
"30.6032","4834.6","20.0773","0.401546","918.1"
"30.6332","4829.21","20.0744","0.401488","919"
"30.6633","4816.24","20.0735","0.40147","919.9"
"30.6932","4795.54","20.0724","0.401448","920.8"
"30.7232","4756.18","20.0666","0.401332","921.7"
"30.7533","4731.14","20.0595","0.40119","922.6"
"30.7833","4269.5","19.965","0.3993","923.5"
"30.8132","4183.1","19.9355","0.39871","924.4"
"30.8433","4157.32","19.9301","0.398602","925.3"
"30.8732","4088.94","19.9166","0.398332","926.2"
"30.9032","4057.2","19.9094","0.398188","927.1"
"30.9332","4042.05","19.9048","0.398096","928"
"30.9633","4001.83","19.8968","0.397936","928.9"
"30.9933","3981.72","19.8954","0.397908","929.8"
"31.0232","3954.01","19.8866","0.397732","930.7"
"31.0533","3920.41","19.8798","0.397596","931.6"
"31.0833","3803.52","19.8588","0.397176","932.5"
"31.1133","3040.53","19.7009","0.394018","933.4"
"31.1432","2930.03","19.6673","0.393346","934.3"
"31.1733","2908.47","19.6632","0.393264","935.2"
"31.2033","2895.09","19.6539","0.393078","936.1"
"31.2332","2878.82","19.6527","0.393054","937"
"31.2633","2846.68","19.6464","0.392928","937.9"
"31.2933","2820.58","19.6398","0.392796","938.8"
"31.3232","2780.77","19.6335","0.39267","939.7"
"31.3532","2721.36","19.6202","0.392404","940.6"
"31.3833","2612.28","19.6089","0.392178","941.5"
"31.4133","2435.8","19.5826","0.391652","942.4"
"31.4223","1386.3","19.5738","0.391476","942.667"