File: experimental_data/tensile_specimen_test_data/tensile_test_data/20250312/original_data/without_extensometer/SSS 2 03-12-25 17 51 23 下午/数采：横梁, … - (实时值).csv
"文件路径: C:\Users\Lenovo\Desktop\Wayne\20250312\原始数据\无引伸计\SSS 2 03-12-25 17 51 23 下午\数采：横梁, … - (实时值).csv   "
"试验: MTS EM 拉伸试验-W 3"
"试验运行: SSS 2"
"日期: 2025/3/12 16:53:55"
""
""
"横梁 ","力 ","应变 ","应力 ","时间 "
"mm","N","mm/mm","N/mm²","sec"
"0.00265475","56.654","2.17348e-05","3.11286","0.1"
"0.0232872","145.221","0.00019406","7.979179","0.7"
"0.0432211","230.642","0.000359788","12.6727","1.3"
"0.0632481","313.692","0.000527068","17.23581","1.9"
"0.0832286","393.691","0.000693184","21.63136","2.5"
"0.103256","472.368","0.000860075","25.9543","3.1"
"0.123236","548.743","0.00102697","30.1507","3.7"
"0.143263","623.43","0.00119386","34.25438","4.3"
"0.163244","696.672","0.00136036","38.2787","4.9"
"0.183271","767.989","0.00152725","42.1972","5.5"
"0.203204","837.326","0.00169337","46.0069","6.1"
"0.223231","905.206","0.00185987","49.73662","6.7"
"0.243259","970.43","0.00202677","53.3204","7.3"
"0.263239","1033.26","0.00219366","56.7725","7.9"
"0.283313","1092.43","0.00236055","60.0238","8.5"
"0.303293","1147.36","0.00252705","63.0417","9.1"
"0.323227","1198.24","0.00269356","65.83714","9.7"
"0.343254","1245.64","0.00286006","68.4417","10.3"
"0.363234","1289.72","0.00302656","70.8635","10.9"
"0.383215","1330.77","0.00319346","73.1195","11.5"
"0.403335","1369.64","0.00336074","75.2551","12.1"
"0.423269","1405.58","0.00352724","77.22964","12.7"
"0.443296","1440.02","0.00369413","79.1222","13.3"
"0.46323","1471.81","0.00385986","80.86864","13.9"
"0.483257","1501.73","0.00402675","82.5128","14.5"
"0.503191","1530.06","0.00419326","84.069","15.1"
"0.523264","1557.09","0.00436015","85.5545","15.7"
"0.543245","1582.92","0.00452665","86.97348","16.3"
"0.563318","1607.55","0.00469393","88.3268","16.9"
"0.583252","1630.53","0.00486005","89.58964","17.5"
"0.603233","1652.74","0.00502694","90.8099","18.1"
"0.623213","1673.73","0.00519344","91.9635","18.7"
"0.643194","1694.14","0.00535995","93.0846","19.3"
"0.663267","1713.9","0.00552684","94.1703","19.9"
"0.683248","1732.56","0.00569334","95.1957","20.5"
"0.703275","1750.8","0.00586023","96.198","21.1"
"0.723302","1768.05","0.00602751","97.1455","21.7"
"0.743236","1784.87","0.00619324","98.0695","22.3"
"0.763263","1800.64","0.00636013","98.9362","22.9"
"0.783243","1816.57","0.00652664","99.8117","23.5"
"0.803223","1831.34","0.00669353","100.623","24.1"
"0.823297","1845.79","0.00686042","101.417","24.7"
"0.843278","1859.86","0.00702692","102.19","25.3"
"0.863305","1873.05","0.0071942","102.915","25.9"
"0.883238","1886.21","0.00735993","103.638","26.5"
"0.903265","1898.58","0.00752682","104.317","27.1"
"0.923199","1910.41","0.00769294","104.967","27.7"
"0.943273","1922.3","0.00786061","105.621","28.3"
"0.963253","1933.54","0.00802672","106.239","28.9"
"0.98328","1944.96","0.008194","106.866","29.5"
"1.00326","1955.4","0.00836012","107.439","30.1"
"1.02324","1965.59","0.00852662","108","30.7"
"1.04322","1975.46","0.00869351","108.542","31.3"
"1.0632","1985.33","0.00885963","109.084","31.9"
"1.08323","1994.68","0.00902691","109.598","32.5"
"1.1033","2004.48","0.00919419","110.136","33.1"
"1.12328","2013.25","0.00936031","110.618","33.7"
"1.14326","2021.92","0.0095272","111.094","34.3"
"1.16324","2030.21","0.00969331","111.55","34.9"
"1.18322","2038.52","0.00985982","112.006","35.5"
"1.20325","2046.65","0.0100267","112.453","36.1"
"1.22323","2054.35","0.0101936","112.876","36.7"
"1.24331","2062.22","0.0103605","113.309","37.3"
"1.26329","2069.53","0.010527","113.71","37.9"
"1.28331","2077.08","0.0106939","114.125","38.5"
"1.3032","2083.88","0.01086","114.499","39.1"
"1.32327","2091.03","0.0110269","114.892","39.7"
"1.34321","2097.54","0.011193","115.25","40.3"
"1.36328","2104.5","0.0113603","115.632","40.9"
"1.38326","2111.24","0.0115268","116.002","41.5"
"1.40329","2117.4","0.0116937","116.341","42.1"
"1.42327","2124.06","0.0118606","116.7064","42.7"
"1.4432","2129.87","0.0120267","117.026","43.3"
"1.46318","2136.08","0.0121932","117.367","43.9"
"1.48326","2141.9","0.0123601","117.687","44.5"
"1.50324","2147.91","0.0125266","118.017","45.1"
"1.52331","2154.27","0.0126939","118.367","45.7"
"1.54329","2159.58","0.0128604","118.658","46.3"
"1.56327","2165.42","0.0130269","118.979","46.9"
"1.58325","2170.92","0.0131934","119.281","47.5"
"1.60319","2176.17","0.0133599","119.57","48.1"
"1.62326","2181.31","0.0135268","119.852","48.7"
"1.64329","2186.83","0.0136937","120.155","49.3"
"1.66331","2192.4","0.0138606","120.462","49.9"
"1.68329","2197.43","0.0140271","120.738","50.5"
"1.70328","2202.7","0.0141936","121.027","51.1"
"1.72321","2207.34","0.0143597","121.282","51.7"
"1.74324","2212.29","0.014527","121.554","52.3"
"1.76322","2217.35","0.0146935","121.832","52.9"
"1.78329","2222.37","0.0148604","122.108","53.5"
"1.80332","2227.34","0.0150273","122.381","54.1"
"1.82325","2231.93","0.0151938","122.633","54.7"
"1.84323","2236.57","0.0153599","122.888","55.3"
"1.86321","2240.94","0.0155268","123.128","55.9"
"1.88319","2245.52","0.0156933","123.38","56.5"
"1.90327","2250.3","0.0158602","123.643","57.1"
"1.92325","2255.08","0.0160271","123.905","57.7"
"1.94327","2259.12","0.0161936","124.128","58.3"
"1.9633","2263.64","0.0163605","124.376","58.9"
"1.98323","2267.93","0.016527","124.612","59.5"
"2.00326","2272.41","0.0166935","124.858","60.1"
"2.02324","2276.44","0.01686","125.079","60.7"
"2.04327","2280.83","0.0170269","125.32","61.3"
"2.0633","2285.06","0.0171937","125.553","61.9"
"2.08332","2289.22","0.0173606","125.781","62.5"
"2.10326","2293.56","0.0175271","126.02","63.1"
"2.12328","2297.73","0.0176936","126.249","63.7"
"2.14322","2301.31","0.0178598","126.446","64.3"
"2.16324","2305.38","0.0180267","126.669","64.9"
"2.18323","2309.7","0.0181935","126.9064","65.5"
"2.2033","2313.76","0.0183604","127.1294","66.1"
"2.22328","2317.97","0.0185273","127.361","66.7"
"2.24326","2321.85","0.0186938","127.574","67.3"
"2.26324","2325.47","0.0188599","127.773","67.9"
"2.28322","2329.52","0.0190265","127.996","68.5"
"2.3032","2333.28","0.0191933","128.202","69.1"
"2.32323","2337.08","0.0193602","128.411","69.7"
"2.3433","2341.39","0.0195271","128.648","70.3"
"2.36328","2344.84","0.0196936","128.837","70.9"
"2.38326","2348.78","0.0198601","129.054","71.5"
"2.40324","2352.06","0.020027","129.234","72.1"
"2.42322","2355.82","0.0201931","129.441","72.7"
"2.44325","2359.71","0.02036","129.654","73.3"
"2.46328","2363.57","0.0205269","129.867","73.9"
"2.48326","2366.98","0.0206934","130.054","74.5"
"2.50333","2370.59","0.0208607","130.252","75.1"
"2.52322","2374.06","0.0210268","130.443","75.7"
"2.54329","2377.8","0.0211937","130.648","76.3"
"2.56323","2381.07","0.0213598","130.828","76.9"
"2.58325","2384.68","0.0215267","131.026","77.5"
"2.60323","2388","0.0216936","131.209","78.1"
"2.62331","2391.95","0.0218605","131.426","78.7"
"2.64324","2395.24","0.022027","131.607","79.3"
"2.66327","2398.73","0.0221935","131.798","79.9"
"2.68325","2402.14","0.02236","131.986","80.5"
"2.70323","2405.34","0.0225265","132.161","81.1"
"2.72321","2408.75","0.0226934","132.349","81.7"
"2.74328","2411.9","0.0228603","132.522","82.3"
"2.76331","2415.51","0.0230272","132.72","82.9"
"2.78329","2418.94","0.0231941","132.909","83.5"
"2.80322","2422.37","0.0233602","133.097","84.1"
"2.82325","2425.77","0.0235267","133.284","84.7"
"2.84323","2428.72","0.0236932","133.446","85.3"
"2.86321","2432.29","0.0238601","133.642","85.9"
"2.88333","2435.72","0.0240274","133.831","86.5"
"2.90327","2439.32","0.0241935","134.029","87.1"
"2.92334","2442.56","0.0243608","134.2068","87.7"
"2.94323","2445.3","0.0245265","134.357","88.3"
"2.96325","2448.4","0.0246934","134.528","88.9"
"2.98324","2451.55","0.0248599","134.701","89.5"
"3.00326","2455.15","0.0250268","134.898","90.1"
"3.02324","2458.21","0.0251937","135.067","90.7"
"3.04332","2461.55","0.0253606","135.25","91.3"
"3.06325","2464.53","0.0255271","135.414","91.9"
"3.08323","2467.49","0.0256936","135.577","92.5"
"3.10321","2470.48","0.0258597","135.741","93.1"
"3.12324","2473.44","0.0260266","135.903","93.7"
"3.14327","2476.875","0.0261935","136.092","94.3"
"3.16329","2480.02","0.0263604","136.265","94.9"
"3.18327","2483.04","0.0265269","136.431","95.5"
"3.2033","2485.96","0.0266938","136.591","96.1"
"3.22323","2488.69","0.0268603","136.741","96.7"
"3.24321","2491.88","0.0270268","136.916","97.3"
"3.26324","2495.23","0.0271937","137.101","97.9"
"3.28322","2497.74","0.0273598","137.238","98.5"
"3.30334","2501.15","0.0275275","137.426","99.1"
"3.32328","2503.73","0.0276936","137.567","99.7"
"3.3433","2506.84","0.0278605","137.739","100.3"
"3.36324","2509.54","0.028027","137.887","100.9"
"3.38326","2512.43","0.0281935","138.046","101.5"
"3.4032","2515.19","0.0283596","138.197","102.1"
"3.42327","2518.04","0.0285269","138.354","102.7"
"3.44325","2520.95","0.0286934","138.514","103.3"
"3.46332","2523.7","0.0288607","138.665","103.9"
"3.48326","2526.91","0.0290268","138.841","104.5"
"3.50324","2529.71","0.0291933","138.995","105.1"
"3.52322","2532.23","0.0293598","139.133","105.7"
"3.54325","2534.69","0.0295267","139.269","106.3"
"3.56323","2537.63","0.0296936","139.43","106.9"
"3.5833","2540.93","0.0298605","139.612","107.5"
"3.60328","2543.55","0.0300273","139.755","108.1"
"3.62326","2546.3","0.0301938","139.9068","108.7"
"3.64324","2548.83","0.03036","140.045","109.3"
"3.66322","2551.5","0.0305265","140.192","109.9"
"3.68325","2554.25","0.0306934","140.344","110.5"
"3.70328","2556.98","0.0308603","140.493","111.1"
"3.7233","2560.08","0.0310271","140.6636","111.7"
"3.74328","2562.67","0.031194","140.806","112.3"
"3.76326","2565.19","0.0313605","140.944","112.9"
"3.7832","2567.54","0.0315267","141.073","113.5"
"3.80327","2570.33","0.0316935","141.227","114.1"
"3.82321","2572.75","0.0318597","141.36","114.7"
"3.84328","2575.76","0.0320273","141.526","115.3"
"3.86326","2578.1","0.0321934","141.654","115.9"
"3.88329","2580.61","0.0323603","141.792","116.5"
"3.90327","2583.22","0.0325268","141.935","117.1"
"3.92325","2585.72","0.0326933","142.072","117.7"
"3.94323","2588.24","0.0328598","142.2112","118.3"
"3.96321","2590.88","0.0330267","142.356","118.9"
"3.98324","2593.44","0.0331936","142.497","119.5"
"4.00331","2595.72","0.0333605","142.622","120.1"
"4.02329","2598.44","0.033527","142.771","120.7"
"4.04327","2600.6","0.0336935","142.89","121.3"
"4.06325","2603.26","0.03386","143.036","121.9"
"4.08323","2605.34","0.0340265","143.151","122.5"
"4.10321","2607.84","0.0341934","143.288","123.1"
"4.12329","2610.59","0.0343603","143.439","123.7"
"4.14331","2613.04","0.0345272","143.574","124.3"
"4.16329","2615.37","0.0346937","143.702","124.9"
"4.18327","2617.73","0.0348606","143.831","125.5"
"4.20321","2619.64","0.0350263","143.936","126.1"
"4.22328","2622.2","0.0351936","144.077","126.7"
"4.24321","2624.62","0.0353597","144.21","127.3"
"4.26329","2627.25","0.035527","144.354","127.9"
"4.28332","2629.78","0.0356939","144.493","128.5"
"4.30325","2631.92","0.0358604","144.611","129.1"
"4.32328","2633.98","0.0360269","144.724","129.7"
"4.34321","2636.21","0.036193","144.847","130.3"
"4.36324","2638.41","0.0363599","144.967","130.9"
"4.38326","2640.65","0.0365268","145.091","131.5"
"4.40324","2643.2","0.0366937","145.231","132.1"
"4.42327","2645.63","0.0368606","145.364","132.7"
"4.4433","2647.9","0.0370271","145.489","133.3"
"4.46328","2649.61","0.0371936","145.583","133.9"
"4.48321","2651.98","0.0373601","145.713","134.5"
"4.50324","2654.24","0.0375266","145.837","135.1"
"4.52327","2656.21","0.0376935","145.946","135.7"
"4.54329","2658.5","0.0378604","146.071","136.3"
"4.56332","2660.9","0.0380273","146.203","136.9"
"4.58325","2662.83","0.0381934","146.309","137.5"
"4.60333","2665.45","0.0383607","146.453","138.1"
"4.62322","2667.03","0.0385264","146.54","138.7"
"4.64324","2669.35","0.0386933","146.668","139.3"
"4.66322","2671.56","0.0388602","146.789","139.9"
"4.6833","2673.23","0.0390271","146.88","140.5"
"4.70332","2675.45","0.039194","147.003","141.1"
"4.72326","2677.46","0.0393601","147.113","141.7"
"4.74324","2679.73","0.0395266","147.238","142.3"
"4.76322","2681.2","0.0396935","147.319","142.9"
"4.7832","2683.41","0.0398596","147.44","143.5"
"4.80327","2685.31","0.0400269","147.545","144.1"
"4.8233","2687.72","0.0401938","147.677","144.7"
"4.84333","2689.7","0.0403607","147.785","145.3"
"4.86326","2691.44","0.0405272","147.881","145.9"
"4.88324","2693.3","0.0406933","147.984","146.5"
"4.90322","2695.14","0.0408598","148.085","147.1"
"4.92325","2697.07","0.0410267","148.191","147.7"
"4.94328","2699.3","0.041194","148.313","148.3"
"4.96326","2700.78","0.0413601","148.394","148.9"
"4.98333","2703.28","0.0415274","148.532","149.5"
"5.00326","2704.59","0.0416935","148.604","150.1"
"5.02324","2706.26","0.04186","148.696","150.7"
"5.04322","2708.25","0.0420265","148.8048","151.3"
"5.06325","2710.34","0.0421934","148.92","151.9"
"5.08328","2712.46","0.0423603","149.036","152.5"
"5.10331","2714.14","0.0425272","149.129","153.1"
"5.12324","2716.07","0.0426937","149.234","153.7"
"5.14327","2718.05","0.0428606","149.344","154.3"
"5.1632","2719.79","0.0430267","149.439","154.9"
"5.18323","2721.34","0.0431932","149.524","155.5"
"5.20325","2723.18","0.0433601","149.626","156.1"
"5.22328","2725.01","0.043527","149.726","156.7"
"5.24331","2726.79","0.0436938","149.824","157.3"
"5.26329","2728.72","0.0438604","149.9296","157.9"
"5.28327","2730.76","0.0440269","150.042","158.5"
"5.30325","2732.16","0.0441937","150.119","159.1"
"5.32323","2733.92","0.0443599","150.215","159.7"
"5.34321","2735.17","0.0445264","150.284","160.3"
"5.36328","2737.33","0.044694","150.403","160.9"
"5.38326","2738.83","0.0448605","150.485","161.5"
"5.40334","2740.77","0.0450274","150.592","162.1"
"5.42323","2742.36","0.0451932","150.679","162.7"
"5.44325","2744.2","0.0453601","150.78","163.3"
"5.46319","2745.71","0.0455266","150.863","163.9"
"5.48326","2747.15","0.0456934","150.942","164.5"
"5.50324","2749.15","0.0458599","151.052","165.1"
"5.52331","2751.1","0.0460276","151.16","165.7"
"5.54325","2752.37","0.0461937","151.2292","166.3"
"5.56323","2753.96","0.0463602","151.316","166.9"
"5.58321","2755.73","0.0465267","151.414","167.5"
"5.60319","2757.04","0.0466932","151.486","168.1"
"5.62326","2758.83","0.0468601","151.584","168.7"
"5.64329","2760.62","0.047027","151.683","169.3"
"5.66327","2762.15","0.0471935","151.766","169.9"
"5.6833","2763.85","0.0473604","151.86","170.5"
"5.70323","2765.16","0.0475265","151.932","171.1"
"5.72326","2766.34","0.0476934","151.997","171.7"
"5.74324","2768.26","0.0478599","152.102","172.3"
"5.76327","2769.89","0.0480268","152.192","172.9"
"5.78329","2771.55","0.0481937","152.283","173.5"
"5.80327","2772.93","0.0483602","152.359","174.1"
"5.8233","2774.51","0.0485271","152.446","174.7"
"5.84323","2775.69","0.0486932","152.51","175.3"
"5.86326","2777.36","0.0488601","152.602","175.9"
"5.88319","2778.44","0.0490262","152.662","176.5"
"5.90327","2780.33","0.0491939","152.766","177.1"
"5.92325","2781.54","0.04936","152.832","177.7"
"5.94328","2783.12","0.0495273","152.919","178.3"
"5.96326","2784.78","0.0496938","153.01","178.9"
"5.98324","2786.06","0.0498599","153.08","179.5"
"6.00322","2787.79","0.0500268","153.175","180.1"
"6.0232","2788.82","0.0501929","153.232","180.7"
"6.04323","2790.45","0.0503602","153.321","181.3"
"6.0633","2791.95","0.0505275","153.404","181.9"
"6.08328","2793.28","0.0506936","153.477","182.5"
"6.10331","2794.02","0.0508605","153.518","183.1"
"6.12324","2795.32","0.0510266","153.589","183.7"
"6.14322","2796.85","0.0511931","153.673","184.3"
"6.16325","2798.13","0.05136","153.743","184.9"
"6.18323","2799.69","0.0515269","153.8292","185.5"
"6.2033","2801.04","0.0516942","153.903","186.1"
"6.22328","2802.55","0.0518603","153.986","186.7"
"6.24331","2803.98","0.0520272","154.065","187.3"
"6.2632","2804.67","0.0521933","154.102","187.9"
"6.28327","2806.22","0.0523602","154.188","188.5"
"6.3032","2807.63","0.0525267","154.266","189.1"
"6.32328","2809.19","0.052694","154.351","189.7"
"6.34326","2810.41","0.0528605","154.418","190.3"
"6.36328","2811.68","0.053027","154.488","190.9"
"6.38327","2813","0.0531935","154.561","191.5"
"6.4032","2814.06","0.05336","154.618","192.1"
"6.42323","2815.34","0.0535265","154.689","192.7"
"6.44325","2816.73","0.0536934","154.766","193.3"
"6.46323","2818.07","0.0538599","154.839","193.9"
"6.48331","2819.39","0.0540272","154.912","194.5"
"6.50329","2820.45","0.0541937","154.97","195.1"
"6.52327","2821.73","0.0543602","155.04","195.7"
"6.54325","2822.91","0.0545267","155.105","196.3"
"6.56323","2824.04","0.0546932","155.167","196.9"
"6.58326","2825.17","0.0548601","155.229","197.5"
"6.60328","2826.59","0.055027","155.307","198.1"
"6.62331","2828.17","0.0551939","155.394","198.7"
"6.64329","2828.99","0.0553604","155.439","199.3"
"6.66327","2830.21","0.0555273","155.506","199.9"
"6.6832","2831.47","0.055693","155.575","200.5"
"6.70323","2832.59","0.0558603","155.637","201.1"
"6.72321","2833.67","0.0560264","155.696","201.7"
"6.74329","2834.58","0.0561937","155.746","202.3"
"6.76331","2836.42","0.0563606","155.847","202.9"
"6.78329","2837","0.0565271","155.879","203.5"
"6.80323","2838.62","0.0566936","155.968","204.1"
"6.82321","2838.24","0.0568601","155.947","204.7"
"6.84319","2839.2","0.0570266","156","205.3"
"6.86326","2840.85","0.0571935","156.09","205.9"
"6.88329","2842.05","0.0573604","156.156","206.5"
"6.90332","2843.57","0.0575272","156.24","207.1"
"6.9233","2844.47","0.0576937","156.29","207.7"
"6.94323","2845.53","0.0578603","156.348","208.3"
"6.96326","2846.41","0.0580268","156.396","208.9"
"6.98324","2847.42","0.0581933","156.452","209.5"
"7.00326","2848.59","0.0583602","156.516","210.1"
"7.02329","2849.85","0.058527","156.585","210.7"
"7.04332","2851.03","0.0586939","156.65","211.3"
"7.06325","2851.91","0.0588601","156.6984","211.9"
"7.08328","2853.28","0.0590269","156.774","212.5"
"7.10321","2854.06","0.0591931","156.816","213.1"
"7.12324","2855.4","0.0593603","156.89","213.7"
"7.14322","2856.39","0.0595268","156.945","214.3"
"7.16329","2857.72","0.0596937","157.018","214.9"
"7.18328","2858.26","0.0598602","157.047","215.5"
"7.20326","2858.7","0.0600271","157.072","216.1"
"7.22324","2859.85","0.0601932","157.135","216.7"
"7.24322","2860.86","0.0603597","157.19","217.3"
"7.26324","2861.92","0.0605266","157.248","217.9"
"7.28322","2862.79","0.0606935","157.296","218.5"
"7.3033","2864.22","0.0608604","157.375","219.1"
"7.32328","2865.32","0.0610273","157.435","219.7"
"7.34326","2866.3","0.0611938","157.489","220.3"
"7.36324","2867.19","0.0613603","157.538","220.9"
"7.38322","2868.01","0.0615264","157.583","221.5"
"7.40325","2869.03","0.0616937","157.639","222.1"
"7.42327","2870.37","0.0618602","157.713","222.7"
"7.4433","2871.31","0.0620271","157.764","223.3"
"7.46333","2872.53","0.062194","157.832","223.9"
"7.48321","2873.11","0.0623601","157.863","224.5"
"7.50329","2874.16","0.062527","157.921","225.1"
"7.52318","2874.93","0.0626931","157.963","225.7"
"7.54325","2875.92","0.06286","158.018","226.3"
"7.56328","2877.16","0.0630269","158.086","226.9"
"7.5833","2878.22","0.0631938","158.144","227.5"
"7.60328","2879.02","0.0633603","158.188","228.1"
"7.62326","2880.03","0.0635268","158.244","228.7"
"7.64324","2880.68","0.0636933","158.279","229.3"
"7.66323","2881.45","0.0638598","158.322","229.9"
"7.68325","2882.6","0.0640267","158.384","230.5"
"7.70328","2883.45","0.0641936","158.431","231.1"
"7.72331","2884.83","0.0643605","158.507","231.7"
"7.74329","2885.43","0.0645274","158.54","232.3"
"7.76322","2886.42","0.0646935","158.594","232.9"
"7.78325","2887.29","0.0648604","158.642","233.5"
"7.80323","2887.96","0.0650265","158.679","234.1"
"7.82321","2889.09","0.0651934","158.741","234.7"
"7.84328","2890.05","0.0653607","158.794","235.3"
"7.86326","2890.71","0.0655268","158.83","235.9"
"7.88334","2891.83","0.0656941","158.892","236.5"
"7.90322","2892.56","0.0658602","158.932","237.1"
"7.92325","2893.26","0.0660267","158.97","237.7"
"7.94323","2893.95","0.0661932","159.008","238.3"
"7.96326","2894.91","0.0663601","159.061","238.9"
"7.98324","2895.79","0.0665266","159.109","239.5"
"8.00331","2896.86","0.0666939","159.168","240.1"
"8.02329","2897.83","0.0668604","159.221","240.7"
"8.04327","2898.36","0.0670269","159.251","241.3"
"8.06321","2899.45","0.067193","159.311","241.9"
"8.08319","2899.6","0.0673599","159.319","242.5"
"8.10326","2900.78","0.0675268","159.383","243.1"
"8.12329","2901.78","0.0676937","159.438","243.7"
"8.14327","2902.69","0.0678602","159.489","244.3"
"8.1633","2903.67","0.0680271","159.542","244.9"
"8.18323","2904.2","0.0681936","159.572","245.5"
"8.20321","2904.95","0.0683601","159.613","246.1"
"8.22324","2905.75","0.068527","159.656","246.7"
"8.24322","2906.66","0.0686935","159.707","247.3"
"8.26334","2908","0.0688608","159.78","247.9"
"8.28327","2908.55","0.0690269","159.811","248.5"
"8.3033","2909.26","0.0691938","159.85","249.1"
"8.32323","2909.59","0.0693603","159.867","249.7"
"8.34326","2910.57","0.0695268","159.921","250.3"
"8.36319","2911.15","0.0696933","159.953","250.9"
"8.38327","2912.11","0.0698606","160.006","251.5"
"8.40325","2912.64","0.0700267","160.035","252.1"
"8.42332","2913.6","0.070194","160.088","252.7"
"8.44325","2914.26","0.0703601","160.124","253.3"
"8.46323","2914.99","0.070527","160.164","253.9"
"8.48322","2915.83","0.0706935","160.211","254.5"
"8.5032","2916.6","0.07086","160.253","255.1"
"8.52322","2917.42","0.0710265","160.298","255.7"
"8.5433","2918.28","0.0711937","160.345","256.3"
"8.56328","2919.27","0.0713606","160.399","256.9"
"8.5833","2919.69","0.0715271","160.422","257.5"
"8.60324","2920.8","0.0716937","160.484","258.1"
"8.62322","2921.17","0.0718598","160.504","258.7"
"8.64325","2921.82","0.0720267","160.54","259.3"
"8.66327","2922.73","0.0721935","160.589","259.9"
"8.6833","2923.66","0.0723604","160.641","260.5"
"8.70328","2924.31","0.0725273","160.677","261.1"
"8.72331","2925.13","0.0726938","160.721","261.7"
"8.74319","2925.73","0.07286","160.755","262.3"
"8.76322","2926.15","0.0730268","160.777","262.9"
"8.7832","2927.1","0.073193","160.829","263.5"
"8.80332","2927.64","0.0733606","160.859","264.1"
"8.82326","2928.59","0.0735267","160.911","264.7"
"8.84328","2929.16","0.0736936","160.943","265.3"
"8.86326","2929.67","0.0738601","160.971","265.9"
"8.8832","2930.16","0.0740266","160.998","266.5"
"8.90322","2930.92","0.0741931","161.04","267.1"
"8.92325","2931.82","0.07436","161.089","267.7"
"8.94328","2932.53","0.0745269","161.128","268.3"
"8.96331","2933.32","0.0746938","161.171","268.9"
"8.98324","2934.02","0.0748603","161.21","269.5"
"9.00327","2934.73","0.0750268","161.249","270.1"
"9.02325","2935.06","0.0751933","161.267","270.7"
"9.04323","2935.54","0.0753602","161.293","271.3"
"9.06325","2935.88","0.0755267","161.312","271.9"
"9.08328","2936.87","0.0756936","161.366","272.5"
"9.10331","2937.54","0.0758605","161.403","273.1"
"9.12329","2937.99","0.076027","161.428","273.7"
"9.14327","2938.94","0.0761939","161.48","274.3"
"9.1632","2939.38","0.0763596","161.505","274.9"
"9.18328","2940.17","0.0765269","161.548","275.5"
"9.20321","2940.41","0.076693","161.561","276.1"
"9.22328","2941.54","0.0768603","161.623","276.7"
"9.24331","2942.27","0.0770272","161.663","277.3"
"9.26329","2942.79","0.0771937","161.692","277.9"
"9.28327","2943.43","0.0773602","161.727","278.5"
"9.30321","2943.84","0.0775263","161.749","279.1"
"9.32319","2944.49","0.0776932","161.785","279.7"
"9.34326","2945.17","0.0778601","161.822","280.3"
"9.36329","2945.93","0.078027","161.864","280.9"
"9.38331","2946.72","0.0781939","161.908","281.5"
"9.40329","2947.54","0.0783604","161.953","282.1"
"9.42327","2947.57","0.0785269","161.954","282.7"
"9.44321","2948.27","0.078693","161.993","283.3"
"9.46324","2949.01","0.0788599","162.034","283.9"
"9.48326","2949.53","0.0790268","162.062","284.5"
"9.50329","2950.39","0.0791937","162.109","285.1"
"9.52332","2950.25","0.0793606","162.102","285.7"
"9.5432","2950.66","0.0795267","162.124","286.3"
"9.56332","2951.55","0.079694","162.173","286.9"
"9.58321","2951.79","0.0798597","162.186","287.5"
"9.60324","2952.82","0.0800266","162.243","288.1"
"9.62327","2953.43","0.0801935","162.276","288.7"
"9.64329","2954.41","0.0803604","162.33","289.3"
"9.66327","2954.81","0.0805273","162.352","289.9"
"9.68325","2955.13","0.0806934","162.37","290.5"
"9.70323","2955.94","0.0808599","162.414","291.1"
"9.72326","2956.45","0.0810268","162.442","291.7"
"9.7432","2957.01","0.0811933","162.473","292.3"
"9.76327","2957.87","0.0813602","162.52","292.9"
"9.7833","2958.67","0.0815271","162.564","293.5"
"9.80328","2959.5","0.081694","162.61","294.1"
"9.82326","2960.15","0.0818605","162.646","294.7"
"9.84324","2960.39","0.082027","162.659","295.3"
"9.86322","2960.93","0.0821931","162.688","295.9"
"9.88324","2961.39","0.08236","162.714","296.5"
"9.90327","2961.97","0.0825269","162.745","297.1"
"9.92325","2962.69","0.0826934","162.785","297.7"
"9.94333","2963.64","0.082861","162.8376","298.3"
"9.96326","2963.67","0.0830268","162.839","298.9"
"9.98324","2964.71","0.0831937","162.896","299.5"
"10.0032","2965.07","0.0833598","162.916","300.1"
"10.0232","2965.41","0.0835267","162.934","300.7"
"10.0433","2966.34","0.0836936","162.986","301.3"
"10.0633","2966.83","0.0838605","163.013","301.9"
"10.0833","2967.81","0.084027","163.067","302.5"
"10.1033","2968.22","0.0841938","163.089","303.1"
"10.1232","2968.59","0.08436","163.109","303.7"
"10.1432","2968.97","0.0845265","163.13","304.3"
"10.1633","2969.57","0.0846934","163.163","304.9"
"10.1833","2970.41","0.0848603","163.21","305.5"
"10.2033","2970.86","0.0850271","163.234","306.1"
"10.2233","2971.4","0.0851936","163.264","306.7"
"10.2433","2971.9","0.0853602","163.291","307.3"
"10.2632","2972.6","0.085527","163.33","307.9"
"10.2832","2973.04","0.0856932","163.354","308.5"
"10.3033","2973.56","0.0858601","163.382","309.1"
"10.3233","2974.49","0.0860273","163.433","309.7"
"10.3433","2974.9","0.0861938","163.456","310.3"
"10.3633","2975.45","0.0863607","163.486","310.9"
"10.3832","2975.78","0.0865268","163.505","311.5"
"10.4032","2976.23","0.0866933","163.529","312.1"
"10.4232","2976.8","0.0868599","163.56","312.7"
"10.4433","2977.49","0.0870267","163.598","313.3"
"10.4632","2978.18","0.0871933","163.636","313.9"
"10.4833","2978.65","0.0873609","163.662","314.5"
"10.5032","2979.12","0.087527","163.688","315.1"
"10.5233","2979.78","0.0876935","163.724","315.7"
"10.5432","2980.12","0.08786","163.743","316.3"
"10.5632","2980.33","0.0880265","163.755","316.9"
"10.5833","2980.77","0.0881934","163.779","317.5"
"10.6033","2981.43","0.0883603","163.815","318.1"
"10.6233","2982.22","0.0885272","163.858","318.7"
"10.6433","2982.79","0.0886941","163.89","319.3"
"10.6632","2983.38","0.0888598","163.922","319.9"
"10.6832","2983.52","0.0890267","163.93","320.5"
"10.7032","2984.01","0.0891932","163.956","321.1"
"10.7233","2984.56","0.0893601","163.987","321.7"
"10.7433","2985.42","0.0895274","164.034","322.3"
"10.7633","2985.99","0.0896935","164.065","322.9"
"10.7833","2986.34","0.0898604","164.085","323.5"
"10.8032","2986.79","0.0900265","164.109","324.1"
"10.8233","2986.91","0.0901934","164.116","324.7"
"10.8432","2987.42","0.0903599","164.144","325.3"
"10.8633","2988.11","0.0905272","164.182","325.9"
"10.8832","2988.58","0.0906937","164.208","326.5"
"10.9033","2989.12","0.0908606","164.237","327.1"
"10.9233","2989.35","0.0910271","164.25","327.7"
"10.9432","2989.98","0.0911932","164.284","328.3"
"10.9633","2990.38","0.0913601","164.307","328.9"
"10.9832","2990.99","0.0915266","164.34","329.5"
"11.0032","2991.61","0.0916935","164.374","330.1"
"11.0233","2992.06","0.0918608","164.399","330.7"
"11.0433","2992.57","0.0920269","164.427","331.3"
"11.0633","2992.79","0.0921938","164.439","331.9"
"11.0832","2993.25","0.0923599","164.464","332.5"
"11.1032","2993.9","0.0925268","164.5","333.1"
"11.1232","2994.35","0.0926933","164.525","333.7"
"11.1432","2994.7","0.0928602","164.544","334.3"
"11.1633","2995.42","0.0930275","164.583","334.9"
"11.1833","2995.76","0.093194","164.602","335.5"
"11.2033","2996.34","0.0933605","164.634","336.1"
"11.2232","2996.28","0.0935266","164.631","336.7"
"11.2433","2997.02","0.0936935","164.671","337.3"
"11.2632","2996.78","0.09386","164.658","337.9"
"11.2833","2997.63","0.0940269","164.705","338.5"
"11.3033","2998.19","0.0941938","164.735","339.1"
"11.3233","2998.19","0.0943603","164.736","339.7"
"11.3433","2998.79","0.0945272","164.769","340.3"
"11.3632","2998.68","0.0946933","164.763","340.9"
"11.3832","2999.52","0.0948598","164.809","341.5"
"11.4032","3000","0.0950267","164.835","342.1"
"11.4232","3000.64","0.0951936","164.87","342.7"
"11.4433","3001.34","0.0953609","164.909","343.3"
"11.4633","3001.34","0.095527","164.909","343.9"
"11.4833","3001.99","0.0956935","164.944","344.5"
"11.5032","3002.14","0.09586","164.953","345.1"
"11.5232","3002.71","0.0960265","164.984","345.7"
"11.5433","3003.11","0.0961938","165.006","346.3"
"11.5633","3003.6","0.0963603","165.033","346.9"
"11.5833","3004.04","0.0965272","165.057","347.5"
"11.6033","3004.53","0.0966937","165.084","348.1"
"11.6233","3004.73","0.0968602","165.095","348.7"
"11.6432","3004.16","0.0970267","165.064","349.3"
"11.6632","3004.64","0.0971936","165.09","349.9"
"11.6832","3005.08","0.0973597","165.114","350.5"
"11.7033","3005.59","0.097527","165.143","351.1"
"11.7233","3006.31","0.0976939","165.182","351.7"
"11.7433","3006.55","0.0978604","165.195","352.3"
"11.7632","3007.04","0.0980269","165.222","352.9"
"11.7833","3007.35","0.0981934","165.239","353.5"
"11.8032","3007.66","0.0983599","165.256","354.1"
"11.8233","3008.06","0.0985268","165.278","354.7"
"11.8433","3008.75","0.0986937","165.316","355.3"
"11.8633","3008.96","0.0988605","165.327","355.9"
"11.8833","3009.76","0.0990274","165.371","356.5"
"11.9032","3010.01","0.0991936","165.385","357.1"
"11.9232","3010.19","0.0993601","165.395","357.7"
"11.9432","3010.23","0.0995266","165.397","358.3"
"11.9633","3011.17","0.0996934","165.449","358.9"
"11.9833","3011.67","0.0998607","165.476","359.5"
"12.0033","3012.34","0.100027","165.513","360.1"
"12.0232","3012.12","0.100193","165.501","360.7"
"12.0433","3012.59","0.10036","165.527","361.3"
"12.0632","3012.88","0.100526","165.543","361.9"
"12.0832","3013.2","0.100694","165.561","362.5"
"12.1033","3013.87","0.10086","165.597","363.1"
"12.1233","3014.51","0.101027","165.632","363.7"
"12.1433","3014.8","0.101194","165.649","364.3"
"12.1633","3015.34","0.10136","165.678","364.9"
"12.1832","3015.3","0.101527","165.676","365.5"
"12.2032","3015.53","0.101693","165.689","366.1"
"12.2232","3016.05","0.10186","165.717","366.7"
"12.2433","3016.56","0.102027","165.745","367.3"
"12.2633","3017.02","0.102194","165.77","367.9"
"12.2833","3017.52","0.10236","165.798","368.5"
"12.3033","3017.8","0.102527","165.813","369.1"
"12.3232","3017.98","0.102694","165.823","369.7"
"12.3432","3018.53","0.10286","165.853","370.3"
"12.3632","3019.07","0.103027","165.883","370.9"
"12.3833","3019.32","0.103194","165.897","371.5"
"12.4032","3019.49","0.10336","165.906","372.1"
"12.4233","3020.06","0.103527","165.937","372.7"
"12.4433","3020.2","0.103693","165.945","373.3"
"12.4633","3020.57","0.10386","165.965","373.9"
"12.4832","3021","0.104026","165.989","374.5"
"12.5032","3021.41","0.104193","166.011","375.1"
"12.5233","3021.76","0.10436","166.031","375.7"
"12.5433","3022.27","0.104527","166.059","376.3"
"12.5633","3022.76","0.104694","166.086","376.9"
"12.5833","3023.18","0.10486","166.109","377.5"
"12.6032","3023.37","0.105027","166.119","378.1"
"12.6232","3023.39","0.105193","166.12","378.7"
"12.6432","3023.86","0.10536","166.146","379.3"
"12.6633","3024.26","0.105527","166.168","379.9"
"12.6833","3025.04","0.105694","166.211","380.5"
"12.7033","3025.45","0.105861","166.234","381.1"
"12.7232","3025.34","0.106027","166.228","381.7"
"12.7432","3025.97","0.106194","166.262","382.3"
"12.7632","3025.92","0.10636","166.26","382.9"
"12.7833","3026.46","0.106527","166.289","383.5"
"12.8033","3026.91","0.106694","166.314","384.1"
"12.8233","3027.13","0.10686","166.326","384.7"
"12.8433","3027.77","0.107027","166.361","385.3"
"12.8632","3027.51","0.107193","166.346","385.9"
"12.8832","3027.86","0.10736","166.366","386.5"
"12.9032","3028.36","0.107527","166.394","387.1"
"12.9233","3028.81","0.107693","166.418","387.7"
"12.9432","3029.07","0.10786","166.433","388.3"
"12.9633","3029.37","0.108027","166.449","388.9"
"12.9833","3029.95","0.108194","166.481","389.5"
"13.0033","3030.19","0.10836","166.494","390.1"
"13.0232","3030.56","0.108527","166.514","390.7"
"13.0432","3030.42","0.108693","166.506","391.3"
"13.0633","3031.13","0.10886","166.546","391.9"
"13.0833","3031.42","0.109027","166.562","392.5"
"13.1033","3032.01","0.109193","166.594","393.1"
"13.1233","3032.34","0.109361","166.612","393.7"
"13.1433","3032.34","0.109527","166.612","394.3"
"13.1632","3032.69","0.109693","166.631","394.9"
"13.1832","3033.14","0.10986","166.656","395.5"
"13.2032","3033.23","0.110027","166.661","396.1"
"13.2233","3033.8","0.110194","166.692","396.7"
"13.2433","3033.92","0.11036","166.699","397.3"
"13.2633","3034.47","0.110527","166.729","397.9"
"13.2832","3034.69","0.110694","166.741","398.5"
"13.3033","3034.88","0.11086","166.752","399.1"
"13.3232","3034.96","0.111027","166.756","399.7"
"13.3433","3035.46","0.111194","166.7836","400.3"
"13.3633","3035.9","0.11136","166.808","400.9"
"13.3833","3036.28","0.111527","166.829","401.5"
"13.4032","3036.62","0.111693","166.847","402.1"
"13.4232","3036.53","0.11186","166.843","402.7"
"13.4432","3036.9","0.112027","166.863","403.3"
"13.4632","3037.31","0.112193","166.885","403.9"
"13.4833","3037.74","0.11236","166.909","404.5"
"13.5033","3038.5","0.112527","166.951","405.1"
"13.5233","3038.47","0.112694","166.949","405.7"
"13.5433","3038.83","0.11286","166.969","406.3"
"13.5632","3038.95","0.113027","166.975","406.9"
"13.5832","3039.32","0.113193","166.996","407.5"
"13.6032","3039.83","0.11336","167.024","408.1"
"13.6233","3039.85","0.113527","167.025","408.7"
"13.6433","3040.37","0.113694","167.053","409.3"
"13.6633","3040.59","0.113861","167.065","409.9"
"13.6833","3041.28","0.114027","167.103","410.5"
"13.7032","3041.27","0.114193","167.103","411.1"
"13.7233","3041.61","0.11436","167.121","411.7"
"13.7432","3041.86","0.114526","167.135","412.3"
"13.7633","3042.31","0.114694","167.16","412.9"
"13.7833","3042.53","0.11486","167.172","413.5"
"13.8033","3042.82","0.115027","167.188","414.1"
"13.8233","3043.13","0.115193","167.205","414.7"
"13.8432","3043.23","0.11536","167.21","415.3"
"13.8632","3043.6","0.115526","167.231","415.9"
"13.8832","3043.75","0.115693","167.239","416.5"
"13.9033","3044.14","0.11586","167.26","417.1"
"13.9233","3044.48","0.116027","167.279","417.7"
"13.9433","3044.89","0.116194","167.302","418.3"
"13.9633","3044.95","0.11636","167.305","418.9"
"13.9832","3045.11","0.116527","167.314","419.5"
"14.0032","3045.05","0.116694","167.31","420.1"
"14.0232","3045.48","0.11686","167.334","420.7"
"14.0433","3046.02","0.117027","167.364","421.3"
"14.0633","3045.09","0.117194","167.313","421.9"
"14.0833","3043.47","0.11736","167.223","422.5"
"14.1033","3043.81","0.117527","167.243","423.1"
"14.1232","3044.42","0.117693","167.276","423.7"
"14.1433","3045.12","0.11786","167.314","424.3"
"14.1632","3045.29","0.118027","167.324","424.9"
"14.1833","3045.65","0.118194","167.343","425.5"
"14.2033","3045.88","0.118361","167.356","426.1"
"14.2233","3046.36","0.118527","167.382","426.7"
"14.2433","3046.36","0.118694","167.382","427.3"
"14.2632","3046.57","0.11886","167.394","427.9"
"14.2832","3046.76","0.119027","167.404","428.5"
"14.3033","3046.88","0.119193","167.411","429.1"
"14.3232","3047.27","0.11936","167.433","429.7"
"14.3433","3047.56","0.119527","167.448","430.3"
"14.3633","3047.84","0.119694","167.464","430.9"
"14.3833","3048.23","0.11986","167.485","431.5"
"14.4032","3047.93","0.120027","167.469","432.1"
"14.4232","3048.35","0.120193","167.492","432.7"
"14.4433","3048.62","0.12036","167.506","433.3"
"14.4633","3048.81","0.120527","167.517","433.9"
"14.4833","3049.34","0.120694","167.546","434.5"
"14.5032","3049.34","0.12086","167.546","435.1"
"14.5233","3049.71","0.121027","167.566","435.7"
"14.5432","3049.31","0.121193","167.544","436.3"
"14.5632","3049.79","0.12136","167.571","436.9"
"14.5833","3049.92","0.121527","167.578","437.5"
"14.6033","3050.45","0.121694","167.607","438.1"
"14.6233","3050.83","0.121861","167.628","438.7"
"14.6432","3050.83","0.122027","167.628","439.3"
"14.6632","3051.1","0.122193","167.643","439.9"
"14.6832","3050.85","0.12236","167.629","440.5"
"14.7032","3051.36","0.122527","167.657","441.1"
"14.7233","3051.6","0.122693","167.671","441.7"
"14.7433","3052.07","0.12286","167.696","442.3"
"14.7633","3052.29","0.123027","167.708","442.9"
"14.7833","3052.24","0.123194","167.705","443.5"
"14.8032","3052.29","0.12336","167.7084","444.1"
"14.8232","3051.81","0.123527","167.682","444.7"
"14.8432","3052.38","0.123693","167.713","445.3"
"14.8633","3052.62","0.12386","167.727","445.9"
"14.8832","3052.74","0.124027","167.733","446.5"
"14.9033","3053.22","0.124194","167.759","447.1"
"14.9233","3053.12","0.12436","167.754","447.7"
"14.9433","3053.51","0.124527","167.775","448.3"
"14.9632","3053.59","0.124693","167.78","448.9"
"14.9832","3053.97","0.12486","167.8008","449.5"
"15.0033","3054.15","0.125027","167.81","450.1"
"15.0233","3054.43","0.125194","167.826","450.7"
"15.0433","3054.85","0.12536","167.849","451.3"
"15.0633","3054.84","0.125527","167.848","451.9"
"15.0832","3055.2","0.125693","167.868","452.5"
"15.1032","3055.32","0.12586","167.875","453.1"
"15.1232","3055.6","0.126027","167.89","453.7"
"15.1433","3055.98","0.126194","167.911","454.3"
"15.1633","3056.35","0.12636","167.931","454.9"
"15.1833","3056.44","0.126527","167.936","455.5"
"15.2033","3056.72","0.126693","167.951","456.1"
"15.2232","3056.75","0.12686","167.953","456.7"
"15.2432","3056.91","0.127026","167.962","457.3"
"15.2632","3056.86","0.127193","167.96","457.9"
"15.2833","3057.71","0.127361","168.006","458.5"
"15.3033","3057.84","0.127527","168.013","459.1"
"15.3233","3058.13","0.127694","168.029","459.7"
"15.3432","3058.21","0.12786","168.034","460.3"
"15.3632","3058.54","0.128027","168.052","460.9"
"15.3832","3058.42","0.128193","168.045","461.5"
"15.4033","3058.8","0.12836","168.066","462.1"
"15.4232","3059.2","0.128527","168.088","462.7"
"15.4433","3059.6","0.128694","168.11","463.3"
"15.4632","3059.57","0.12886","168.108","463.9"
"15.4833","3059.14","0.129027","168.085","464.5"
"15.5032","3058.68","0.129193","168.0596","465.1"
"15.5232","3058.43","0.12936","168.046","465.7"
"15.5433","3058.84","0.129527","168.068","466.3"
"15.5632","3059.38","0.129694","168.098","466.9"
"15.5833","3059.81","0.129861","168.122","467.5"
"15.6033","3059.68","0.130027","168.114","468.1"
"15.6232","3060.07","0.130194","168.136","468.7"
"15.6433","3060.16","0.13036","168.1404","469.3"
"15.6632","3060.4","0.130527","168.154","469.9"
"15.6833","3060.49","0.130693","168.159","470.5"
"15.7033","3060.78","0.130861","168.175","471.1"
"15.7233","3060.98","0.131027","168.186","471.7"
"15.7433","3061.51","0.131194","168.215","472.3"
"15.7632","3061.43","0.13136","168.21","472.9"
"15.7833","3061.73","0.131527","168.227","473.5"
"15.8032","3061.43","0.131693","168.21","474.1"
"15.8233","3061.96","0.131861","168.24","474.7"
"15.8432","3062.17","0.132027","168.251","475.3"
"15.8633","3062.2","0.132194","168.253","475.9"
"15.8832","3062.42","0.13236","168.265","476.5"
"15.9032","3062.4","0.132527","168.264","477.1"
"15.9233","3062.46","0.132693","168.267","477.7"
"15.9432","3062.32","0.13286","168.259","478.3"
"15.9633","3062.87","0.133027","168.289","478.9"
"15.9833","3063.4","0.133194","168.319","479.5"
"16.0033","3063.26","0.13336","168.311","480.1"
"16.0233","3063.46","0.133527","168.322","480.7"
"16.0432","3063.33","0.133693","168.315","481.3"
"16.0632","3063.66","0.13386","168.333","481.9"
"16.0833","3063.67","0.134027","168.333","482.5"
"16.1033","3064.13","0.134193","168.359","483.1"
"16.1233","3064.44","0.134361","168.376","483.7"
"16.1433","3064.3","0.134527","168.368","484.3"
"16.1633","3064.49","0.134694","168.379","484.9"
"16.1832","3064.62","0.13486","168.385","485.5"
"16.2033","3064.86","0.135027","168.399","486.1"
"16.2232","3064.71","0.135193","168.391","486.7"
"16.2433","3063.95","0.13536","168.349","487.3"
"16.2633","3063.48","0.135527","168.323","487.9"
"16.2833","3063.79","0.135694","168.34","488.5"
"16.3033","3064","0.13586","168.352","489.1"
"16.3232","3064.03","0.136027","168.353","489.7"
"16.3432","3064.32","0.136193","168.369","490.3"
"16.3632","3064.63","0.13636","168.386","490.9"
"16.3832","3064.61","0.136527","168.385","491.5"
"16.4033","3065.01","0.136694","168.407","492.1"
"16.4233","3065.33","0.13686","168.425","492.7"
"16.4433","3065.32","0.137027","168.424","493.3"
"16.4632","3065.46","0.137193","168.432","493.9"
"16.4832","3065.31","0.13736","168.423","494.5"
"16.5032","3065.19","0.137527","168.417","495.1"
"16.5233","3062.51","0.137694","168.2696","495.7"
"16.5433","3062.82","0.137861","168.287","496.3"
"16.5633","3062.9","0.138027","168.291","496.9"
"16.5833","3063.19","0.138194","168.307","497.5"
"16.6032","3063.17","0.13836","168.306","498.1"
"16.6233","3063.19","0.138527","168.307","498.7"
"16.6433","3063.43","0.138693","168.32","499.3"
"16.6633","3060.91","0.138861","168.182","499.9"
"16.6833","3061.24","0.139027","168.2","500.5"
"16.7033","3061.49","0.139194","168.214","501.1"
"16.7232","3059.75","0.13936","168.118","501.7"
"16.7432","3058.2","0.139527","168.033","502.3"
"16.7632","3058.18","0.139693","168.032","502.9"
"16.7833","3058.47","0.13986","168.048","503.5"
"16.8033","3058.45","0.140027","168.047","504.1"
"16.8233","3058.59","0.140194","168.054","504.7"
"16.8433","3057.67","0.14036","168.004","505.3"
"16.8633","3057.69","0.140527","168.005","505.9"
"16.8832","3057.38","0.140693","167.988","506.5"
"16.9032","3057.17","0.14086","167.977","507.1"
"16.9233","3057.11","0.141027","167.973","507.7"
"16.9433","3056.81","0.141194","167.957","508.3"
"16.9633","3056.39","0.141361","167.934","508.9"
"16.9833","3055.19","0.141527","167.867","509.5"
"17.0033","3051.78","0.141694","167.68","510.1"
"17.0232","3051.13","0.14186","167.644","510.7"
"17.0432","3051.26","0.142027","167.652","511.3"
"17.0633","3051.01","0.142193","167.638","511.9"
"17.0833","3051","0.14236","167.638","512.5"
"17.1033","3050.33","0.142527","167.601","513.1"
"17.1233","3050.01","0.142694","167.583","513.7"
"17.1432","3047.91","0.14286","167.4676","514.3"
"17.1632","3045.04","0.143027","167.31","514.9"
"17.1832","3043.82","0.143193","167.243","515.5"
"17.2033","3037.19","0.14336","166.879","516.1"
"17.2233","3030.34","0.143527","166.502","516.7"
"17.2433","3028.21","0.143694","166.385","517.3"
"17.2633","3026.3","0.14386","166.28","517.9"
"17.2832","3024.11","0.144027","166.16","518.5"
"17.3032","3018.44","0.144193","165.848","519.1"
"17.3232","2999.77","0.14436","164.823","519.7"
"17.3433","2995.12","0.144527","164.567","520.3"
"17.3633","2991.59","0.144694","164.373","520.9"
"17.3833","2985.73","0.144861","164.051","521.5"
"17.4033","2972.6","0.145027","163.33","522.1"
"17.4233","2937.46","0.145194","161.399","522.7"
"17.4432","2810.23","0.14536","154.408","523.3"
"17.4523","256.658","0.145436","14.1021","523.565"