File: experimental_data/tensile_specimen_test_data/tensile_test_data/20250312/original_data/SSS 10 03-12-25 16 18 12 下午/数采：横梁, … - (实时值).csv
"文件路径: C:\Users\Lenovo\Desktop\Wayne\20250312\原始数据\SSS 10 03-12-25 16 18 12 下午\数采：横梁, … - (实时值).csv   "
"试验: 拉伸试验（UNIVER）      视频引伸计采集变形-W 1"
"试验运行: SSS 10"
"日期: 2025/3/12 14:01:02"
""
""
"横梁 ","力 ","视频引伸计变形 ","应变 ","时间 "
"mm","N","mm","mm/mm","sec"
"0.00260817","49.655","-0.0002","-4e-06","0.1"
"0.0232407","140.983","0.0317","0.000634","0.7"
"0.0433143","241.636","0.0747","0.001494","1.3"
"0.0632481","342.481","0.1027","0.002054","1.9"
"0.0832752","442.786","0.127","0.00254","2.5"
"0.103209","540.013","0.1518","0.003036","3.1"
"0.123236","636.263","0.1717","0.003434","3.7"
"0.143263","730.346","0.1939","0.003878","4.3"
"0.16329","822.531","0.21","0.0042","4.9"
"0.183271","913.062","0.2278","0.004556","5.5"
"0.203251","1000.98","0.2466","0.004932","6.1"
"0.223231","1087.62","0.2612","0.005224","6.7"
"0.243259","1171.45","0.2783","0.005566","7.3"
"0.263239","1253.62","0.2919","0.005838","7.9"
"0.283266","1333.32","0.3051","0.006102","8.5"
"0.303293","1409.7","0.3211","0.006422","9.1"
"0.323273","1481.92","0.3325","0.00665","9.7"
"0.343254","1550.16","0.3438","0.006876","10.3"
"0.363234","1614.38","0.3594","0.007188","10.9"
"0.383215","1676","0.3722","0.007444","11.5"
"0.403242","1735.31","0.3899","0.007798","12.1"
"0.423269","1791.86","0.4028","0.008056","12.7"
"0.443249","1845.42","0.4151","0.008302","13.3"
"0.463323","1896.96","0.4308","0.008616","13.9"
"0.483257","1945.69","0.4425","0.00885","14.5"
"0.503284","1992.87","0.458","0.00916","15.1"
"0.523218","2037.43","0.469","0.00938","15.7"
"0.543245","2079.71","0.4816","0.009632","16.3"
"0.563272","2120.3","0.4958","0.009916","16.9"
"0.583299","2158.73","0.5079","0.010158","17.5"
"0.603279","2195.67","0.5215","0.01043","18.1"
"0.623306","2230.81","0.5323","0.010646","18.7"
"0.643194","2264.1","0.5438","0.010876","19.3"
"0.663221","2295.96","0.5577","0.011154","19.9"
"0.683248","2326.3","0.5692","0.011384","20.5"
"0.703275","2355.51","0.5866","0.01167","21.1"
"0.723302","2383.26","0.5955","0.01191","21.7"
"0.743282","2409.55","0.6068","0.012136","22.3"
"0.763263","2434.5","0.6207","0.012414","22.9"
"0.783243","2458.43","0.6332","0.012664","23.5"
"0.803223","2481.25","0.6451","0.012902","24.1"
"0.823251","2502.63","0.659","0.01318","24.7"
"0.843324","2524.35","0.6702","0.013404","25.3"
"0.863305","2543.73","0.6843","0.013686","25.9"
"0.883285","2562.71","0.6958","0.013916","26.5"
"0.903219","2580.3","0.7086","0.014172","27.1"
"0.923246","2597.36","0.7213","0.014426","27.7"
"0.943226","2613.99","0.7325","0.01465","28.3"
"0.9633","2630.32","0.7473","0.014946","28.9"
"0.98328","2645.7","0.7588","0.015176","29.5"
"1.00331","2660.35","0.7711","0.015422","30.1"
"1.02324","2673.89","0.7849","0.015698","30.7"
"1.04327","2687.25","0.7973","0.015946","31.3"
"1.06325","2700.29","0.8109","0.016218","31.9"
"1.08323","2712.65","0.8232","0.016464","32.5"
"1.10326","2725.03","0.8345","0.01669","33.1"
"1.12328","2737.2","0.848","0.01696","33.7"
"1.14326","2748.7","0.8598","0.017196","34.3"
"1.16329","2759.75","0.8721","0.017442","34.9"
"1.18322","2770.4","0.8864","0.017728","35.5"
"1.20325","2780.68","0.8981","0.017962","36.1"
"1.22323","2790.9","0.9121","0.018242","36.7"
"1.24326","2800.9","0.9245","0.01849","37.3"
"1.26333","2810.19","0.9369","0.018738","37.9"
"1.28327","2819.7","0.9496","0.018992","38.5"
"1.30329","2828.96","0.9615","0.01923","39.1"
"1.32323","2837.78","0.9758","0.019516","39.7"
"1.34325","2846.55","0.9879","0.019758","40.3"
"1.36319","2854.78","0.9999","0.019998","40.9"
"1.38331","2863.97","1.0141","0.020282","41.5"
"1.40329","2871.94","1.0261","0.020522","42.1"
"1.42332","2880.14","1.04","0.0208","42.7"
"1.44325","2887.52","1.0517","0.021034","43.3"
"1.46323","2895.06","1.0635","0.02127","43.9"
"1.48326","2902.74","1.0773","0.021546","44.5"
"1.50324","2909.98","1.0896","0.021792","45.1"
"1.52326","2917.65","1.1017","0.022034","45.7"
"1.54334","2924.85","1.1164","0.022328","46.3"
"1.56327","2931.8","1.1281","0.022562","46.9"
"1.5833","2938.38","1.1426","0.022852","47.5"
"1.60323","2945.04","1.1544","0.023088","48.1"
"1.62321","2951.66","1.1685","0.02337","48.7"
"1.64329","2958.23","1.1794","0.023588","49.3"
"1.66327","2964.4","1.1923","0.023846","49.9"
"1.68334","2971.3","1.2059","0.024118","50.5"
"1.70328","2977.21","1.2184","0.024368","51.1"
"1.7233","2983.54","1.2312","0.024624","51.7"
"1.74319","2989.22","1.2444","0.024888","52.3"
"1.76326","2995.36","1.2563","0.025126","52.9"
"1.7832","3001.06","1.2709","0.025418","53.5"
"1.80327","3007.08","1.2835","0.02567","54.1"
"1.8233","3013.15","1.2952","0.025904","54.7"
"1.84328","3018.64","1.3099","0.026198","55.3"
"1.86326","3024.13","1.321","0.02642","55.9"
"1.88324","3029.34","1.3365","0.02673","56.5"
"1.90322","3034.89","1.3482","0.026964","57.1"
"1.92329","3040.41","1.3592","0.027184","57.7"
"1.94327","3045.71","1.374","0.02748","58.3"
"1.9633","3051.48","1.3862","0.027724","58.9"
"1.98328","3056.42","1.3981","0.027962","59.5"
"2.00326","3061.54","1.4115","0.02823","60.1"
"2.02324","3066.56","1.4253","0.028506","60.7"
"2.04322","3071.38","1.4385","0.02877","61.3"
"2.0633","3076.58","1.4501","0.029002","61.9"
"2.08328","3081.76","1.4636","0.029272","62.5"
"2.1033","3087.07","1.4772","0.029544","63.1"
"2.12328","3091.45","1.489","0.02978","63.7"
"2.14326","3096.35","1.5051","0.030102","64.3"
"2.1632","3100.79","1.5172","0.030344","64.9"
"2.18327","3105.91","1.5289","0.030578","65.5"
"2.20325","3110.63","1.5406","0.030812","66.1"
"2.22328","3115.49","1.553","0.03106","66.7"
"2.24331","3120.44","1.5672","0.031344","67.3"
"2.26329","3124.65","1.5801","0.031602","67.9"
"2.28322","3129.13","1.5924","0.031848","68.5"
"2.30325","3133.77","1.6082","0.032164","69.1"
"2.32323","3137.99","1.6199","0.032398","69.7"
"2.3433","3142.77","1.6339","0.032678","70.3"
"2.36328","3147.24","1.6454","0.032908","70.9"
"2.38326","3151.92","1.6586","0.033172","71.5"
"2.40329","3156.05","1.6726","0.033452","72.1"
"2.42322","3160.07","1.6846","0.033692","72.7"
"2.44325","3164.66","1.6972","0.033944","73.3"
"2.46323","3168.58","1.7124","0.034248","73.9"
"2.48326","3173.33","1.7245","0.03449","74.5"
"2.50329","3177.43","1.7389","0.034778","75.1"
"2.52331","3181.79","1.7513","0.035026","75.7"
"2.54325","3185.8","1.764","0.03528","76.3"
"2.56327","3189.99","1.7774","0.035548","76.9"
"2.58321","3194.04","1.7899","0.035798","77.5"
"2.60323","3197.8","1.8046","0.036092","78.1"
"2.62326","3202.03","1.8169","0.036338","78.7"
"2.64329","3206.49","1.8283","0.036566","79.3"
"2.66332","3210.47","1.8441","0.036882","79.9"
"2.6833","3214.37","1.8552","0.037104","80.5"
"2.70323","3217.89","1.8702","0.037404","81.1"
"2.72326","3222.15","1.8827","0.037654","81.7"
"2.74324","3226.01","1.895","0.0379","82.3"
"2.76326","3229.93","1.9089","0.038178","82.9"
"2.78334","3234.33","1.921","0.03842","83.5"
"2.80327","3238.04","1.936","0.03872","84.1"
"2.82325","3241.53","1.9478","0.038956","84.7"
"2.84323","3245.05","1.9602","0.039204","85.3"
"2.86321","3249.11","1.9747","0.039494","85.9"
"2.88329","3253.17","1.9875","0.03975","86.5"
"2.90331","3256.73","1.9994","0.039988","87.1"
"2.92329","3260.5","2.2269","0.044538","87.7"
"2.94332","3264.49","2.2422","0.044844","88.3"
"2.96321","3267.74","2.2552","0.045104","88.9"
"2.98328","3271.59","2.2696","0.045392","89.5"
"3.00322","3275.26","2.2809","0.045618","90.1"
"3.02324","3279.1","2.2996","0.045992","90.7"
"3.04327","3282.87","2.3114","0.046228","91.3"
"3.0633","3286.54","2.3252","0.046504","91.9"
"3.08328","3289.82","2.3377","0.046754","92.5"
"3.10326","3293.4","2.3504","0.047008","93.1"
"3.12324","3296.95","2.3692","0.047384","93.7"
"3.14322","3300.17","2.3804","0.047608","94.3"
"3.16325","3304.27","2.3957","0.047914","94.9"
"3.18327","3307.53","2.4106","0.048212","95.5"
"3.2033","3311.29","2.4212","0.048424","96.1"
"3.22333","3314.83","2.4384","0.048768","96.7"
"3.24321","3318.22","2.451","0.04902","97.3"
"3.26324","3321.73","2.4659","0.049318","97.9"
"3.28322","3324.82","2.4802","0.049604","98.5"
"3.30325","3328.32","2.4939","0.049878","99.1"
"3.32332","3332.22","2.5078","0.050156","99.7"
"3.34326","3335.71","2.5205","0.05041","100.3"
"3.36333","3339.14","2.5336","0.050672","100.9"
"3.38322","3341.89","2.5496","0.050992","101.5"
"3.40324","3345.57","2.562","0.05124","102.1"
"3.42322","3348.63","2.5782","0.051564","102.7"
"3.4433","3352.31","2.5907","0.051814","103.3"
"3.46328","3355.89","2.6046","0.052092","103.9"
"3.48331","3359.31","2.6184","0.052368","104.5"
"3.50329","3362.33","2.6342","0.052684","105.1"
"3.52322","3365.2","2.6481","0.052962","105.7"
"3.54325","3368.62","2.6613","0.053226","106.3"
"3.56323","3371.89","2.6742","0.053484","106.9"
"3.58325","3375.38","2.6922","0.053844","107.5"
"3.60328","3378.31","2.7046","0.054092","108.1"
"3.62326","3381.51","2.7172","0.054344","108.7"
"3.64329","3384.89","2.7329","0.054658","109.3"
"3.66322","3387.88","2.7444","0.054888","109.9"
"3.68325","3391.07","2.7624","0.055248","110.5"
"3.70328","3394.35","2.7716","0.055432","111.1"
"3.72321","3397.55","2.7905","0.05581","111.7"
"3.74333","3400.84","2.8015","0.05603","112.3"
"3.76326","3403.7","2.8163","0.056326","112.9"
"3.78329","3407.05","2.8308","0.056616","113.5"
"3.80327","3409.77","2.8481","0.056962","114.1"
"3.82325","3412.7","2.8568","0.057136","114.7"
"3.84323","3415.78","2.8732","0.057464","115.3"
"3.86331","3418.96","2.8848","0.057696","115.9"
"3.88329","3422.24","2.8995","0.05799","116.5"
"3.90331","3425.29","2.9115","0.05823","117.1"
"3.92325","3428.48","2.9252","0.058504","117.7"
"3.94323","3431.14","2.9418","0.058836","118.3"
"3.96321","3434.09","2.9559","0.059118","118.9"
"3.98324","3437.11","2.9705","0.05941","119.5"
"4.00326","3439.74","2.9855","0.05971","120.1"
"4.02329","3443.38","2.9985","0.05997","120.7"
"4.04332","3445.73","3.0137","0.060274","121.3"
"4.06325","3448.78","3.0268","0.060536","121.9"
"4.08323","3451.26","3.0399","0.060798","122.5"
"4.10321","3453.97","3.0539","0.061078","123.1"
"4.12329","3457.34","3.0687","0.061374","123.7"
"4.14327","3460.12","3.0845","0.06169","124.3"
"4.16329","3463.37","3.097","0.06194","124.9"
"4.18327","3465.88","3.1085","0.06217","125.5"
"4.20325","3468.54","3.1262","0.062524","126.1"
"4.22323","3471.02","3.1381","0.062762","126.7"
"4.24326","3474.18","3.1497","0.062994","127.3"
"4.26324","3476.98","3.1686","0.063372","127.9"
"4.28332","3479.73","3.1829","0.063658","128.5"
"4.30325","3482.82","3.1954","0.063908","129.1"
"4.32328","3485.3","3.2095","0.06419","129.7"
"4.34326","3488.32","3.2218","0.064436","130.3"
"4.36324","3490.86","3.2374","0.064748","130.9"
"4.38322","3493.45","3.2499","0.064998","131.5"
"4.40324","3496.14","3.2656","0.065312","132.1"
"4.42332","3498.86","3.2801","0.065602","132.7"
"4.4433","3501.67","3.2948","0.065896","133.3"
"4.46328","3504.44","3.3049","0.066098","133.9"
"4.48326","3506.99","3.3196","0.066392","134.5"
"4.50324","3509.55","3.3371","0.066742","135.1"
"4.52322","3511.82","3.3487","0.066974","135.7"
"4.54325","3514.69","3.3639","0.067278","136.3"
"4.56332","3517.7","3.377","0.06754","136.9"
"4.58335","3520.49","3.3897","0.067794","137.5"
"4.60328","3522.84","3.407","0.06814","138.1"
"4.62326","3525.49","3.4196","0.068392","138.7"
"4.6432","3527.76","3.437","0.068666","139.3"
"4.66327","3530.3","3.4492","0.068984","139.9"
"4.68325","3532.45","3.4626","0.069252","140.5"
"4.70328","3535.41","3.475","0.0695","141.1"
"4.7233","3538.08","3.4881","0.069762","141.7"
"4.74328","3540.57","3.5019","0.070038","142.3"
"4.76322","3542.67","3.5224","0.070448","142.9"
"4.7832","3545.03","3.5331","0.070662","143.5"
"4.80323","3547.77","3.5503","0.071006","144.1"
"4.8233","3550.4","3.5639","0.071278","144.7"
"4.84328","3553","3.5742","0.071484","145.3"
"4.86326","3555.16","3.5924","0.071848","145.9"
"4.88329","3557.97","3.6048","0.072096","146.5"
"4.90327","3560.09","3.6205","0.07241","147.1"
"4.9232","3562.35","3.6353","0.072706","147.7"
"4.94328","3564.85","3.6463","0.072926","148.3"
"4.9633","3567.2","3.6649","0.073298","148.9"
"4.98328","3569.64","3.6767","0.073534","149.5"
"5.00331","3571.86","3.6916","0.073832","150.1"
"5.02324","3574.21","3.7052","0.074104","150.7"
"5.04332","3576.67","3.7196","0.074392","151.3"
"5.06321","3578.96","3.736","0.07472","151.9"
"5.08323","3581.14","3.7494","0.074988","152.5"
"5.10326","3583.69","3.7611","0.075222","153.1"
"5.12329","3585.74","3.7799","0.075598","153.7"
"5.14331","3588.3","3.7911","0.075822","154.3"
"5.16325","3590.49","3.8084","0.076168","154.9"
"5.18323","3592.67","3.8188","0.076376","155.5"
"5.20321","3594.43","3.8342","0.076684","156.1"
"5.22323","3596.96","3.848","0.07696","156.7"
"5.24326","3599.37","3.8626","0.077252","157.3"
"5.26334","3601.72","3.8798","0.077596","157.9"
"5.28332","3604.11","3.8921","0.077842","158.5"
"5.30325","3605.82","3.9071","0.078142","159.1"
"5.32323","3607.91","3.9198","0.078396","159.7"
"5.34326","3609.71","3.9325","0.07865","160.3"
"5.36324","3612.06","3.9506","0.079012","160.9"
"5.38331","3614.85","3.9649","0.079298","161.5"
"5.40325","3616.31","3.9773","0.079546","162.1"
"5.42332","3618.79","3.9951","0.079902","162.7"
"5.44325","3620.27","4.0069","0.080138","163.3"
"5.46323","3622.4","4.02","0.0804","163.9"
"5.48321","3624.39","4.0361","0.080722","164.5"
"5.50329","3626.45","4.0487","0.080974","165.1"
"5.52327","3628.96","4.0671","0.081342","165.7"
"5.54329","3630.71","4.0806","0.081612","166.3"
"5.56327","3632.96","4.0945","0.08189","166.9"
"5.5833","3634.79","4.1112","0.082224","167.5"
"5.60324","3636.81","4.1214","0.082428","168.1"
"5.62322","3638.75","4.1388","0.082776","168.7"
"5.64324","3640.87","4.1514","0.083028","169.3"
"5.66327","3643.15","4.1679","0.083358","169.9"
"5.6833","3644.86","4.1839","0.083678","170.5"
"5.70328","3647.23","4.1957","0.083914","171.1"
"5.72326","3649.125","4.211","0.08422","171.7"
"5.74324","3650.94","4.2272","0.084544","172.3"
"5.76322","3652.77","4.2379","0.084758","172.9"
"5.78325","3654.45","4.2553","0.085106","173.5"
"5.80332","3656.98","4.2701","0.085402","174.1"
"5.8233","3658.88","4.2795","0.08559","174.7"
"5.84333","3660.84","4.2972","0.085944","175.3"
"5.86321","3662.5","4.3103","0.086206","175.9"
"5.88324","3664.51","4.325","0.0865","176.5"
"5.90322","3666.01","4.3411","0.086822","177.1"
"5.9233","3668.19","4.3548","0.087096","177.7"
"5.94328","3670.2","4.3733","0.087466","178.3"
"5.96335","3672.18","4.3873","0.087746","178.9"
"5.98324","3673.96","4.4012","0.088024","179.5"
"6.00322","3675.49","4.4137","0.088274","180.1"
"6.0232","3676.9","4.4288","0.088576","180.7"
"6.04323","3678.86","4.4425","0.08885","181.3"
"6.0633","3680.71","4.458","0.08916","181.9"
"6.08328","3682.89","4.4753","0.089506","182.5"
"6.10326","3684.72","4.4898","0.089796","183.1"
"6.12333","3686.67","4.5007","0.090014","183.7"
"6.14322","3688.24","4.5174","0.090348","184.3"
"6.16325","3689.82","4.5307","0.090614","184.9"
"6.18327","3691.81","4.5513","0.091026","185.5"
"6.20326","3693.31","4.5618","0.091236","186.1"
"6.22333","3695.39","4.5771","0.091542","186.7"
"6.24326","3696.71","4.594","0.09188","187.3"
"6.26329","3698.64","4.6072","0.092144","187.9"
"6.28322","3700.34","4.6259","0.092518","188.5"
"6.30325","3702.09","4.6355","0.09271","189.1"
"6.32318","3703.58","4.6487","0.092974","189.7"
"6.3433","3705.71","4.6676","0.093352","190.3"
"6.36328","3707.16","4.6807","0.093614","190.9"
"6.38331","3709.05","4.6927","0.093854","191.5"
"6.40329","3710.8","4.7097","0.094194","192.1"
"6.42323","3712.11","4.7211","0.094422","192.7"
"6.44325","3714.06","4.736","0.09472","193.3"
"6.46323","3715.24","4.7526","0.095052","193.9"
"6.48326","3717.23","4.7637","0.095274","194.5"
"6.50333","3719.02","4.7787","0.095574","195.1"
"6.52327","3720.59","4.7939","0.095878","195.7"
"6.5433","3722.24","4.8068","0.096136","196.3"
"6.56323","3723.43","4.8243","0.096486","196.9"
"6.58326","3724.92","4.8337","0.096674","197.5"
"6.60328","3726.5","4.8545","0.09709","198.1"
"6.62326","3728.46","4.867","0.09734","198.7"
"6.64334","3730.25","4.8789","0.097578","199.3"
"6.66327","3731.58","4.8946","0.097892","199.9"
"6.6833","3733.49","4.9072","0.098144","200.5"
"6.70319","3734.17","4.9255","0.09851","201.1"
"6.72326","3736.16","4.9343","0.098686","201.7"
"6.74324","3737.53","4.9521","0.099042","202.3"
"6.76331","3739.54","4.9683","0.099366","202.9"
"6.78329","3740.7","4.9766","0.099532","203.5"
"6.80327","3742.36","4.9965","0.09993","204.1"
"6.82325","3743.91","5.0046","0.100092","204.7"
"6.84323","3745.02","5.0218","0.100436","205.3"
"6.86322","3746.62","5.037","0.10074","205.9"
"6.88329","3748.02","5.0518","0.101036","206.5"
"6.90327","3749.94","5.066","0.10132","207.1"
"6.9233","3751.19","5.0813","0.101626","207.7"
"6.94328","3752.31","5.0934","0.101868","208.3"
"6.96326","3753.68","5.1107","0.102214","208.9"
"6.98324","3755.01","5.124","0.10248","209.5"
"7.00322","3756.37","5.138","0.10276","210.1"
"7.02329","3757.96","5.1514","0.103028","210.7"
"7.04327","3759.38","5.1631","0.103262","211.3"
"7.06335","3761.03","5.1801","0.103602","211.9"
"7.08328","3762.61","5.1911","0.103822","212.5"
"7.10331","3764.02","5.2062","0.104124","213.1"
"7.12319","3765.01","5.2233","0.104466","213.7"
"7.14327","3766.43","5.2357","0.104714","214.3"
"7.16325","3767.77","5.2496","0.104992","214.9"
"7.18328","3769.2","5.2638","0.105276","215.5"
"7.2033","3771.02","5.2785","0.10557","216.1"
"7.22328","3772.23","5.2907","0.105814","216.7"
"7.24322","3773.47","5.3088","0.106176","217.3"
"7.26324","3774.57","5.3224","0.106448","217.9"
"7.28322","3775.71","5.3405","0.10681","218.5"
"7.3033","3777.54","5.3495","0.10699","219.1"
"7.32328","3778.8","5.3656","0.107312","219.7"
"7.34331","3780.28","5.3822","0.107644","220.3"
"7.36329","3781.43","5.3954","0.107908","220.9"
"7.38322","3782.44","5.4119","0.108238","221.5"
"7.40325","3783.75","5.423","0.10846","222.1"
"7.42327","3784.94","5.4406","0.108812","222.7"
"7.4433","3786.7","5.4526","0.109052","223.3"
"7.46328","3787.78","5.4711","0.109422","223.9"
"7.48331","3789.41","5.4836","0.109672","224.5"
"7.50324","3790.06","5.4971","0.109942","225.1"
"7.52327","3791.63","5.5139","0.110278","225.7"
"7.5432","3792.75","5.5281","0.110562","226.3"
"7.56328","3794.19","5.5398","0.110796","226.9"
"7.58326","3795.64","5.5544","0.111088","227.5"
"7.60328","3796.56","5.5699","0.111398","228.1"
"7.62331","3797.88","5.5837","0.111674","228.7"
"7.64329","3798.99","5.5982","0.111964","229.3"
"7.66323","3800.17","5.6094","0.112188","229.9"
"7.68325","3801.5","5.6302","0.112604","230.5"
"7.70323","3803.14","5.6391","0.112782","231.1"
"7.72326","3803.95","5.658","0.11316","231.7"
"7.74329","3805.58","5.6701","0.113402","232.3"
"7.76331","3806.68","5.6841","0.113682","232.9"
"7.78325","3807.91","5.7016","0.114032","233.5"
"7.80323","3809.08","5.7138","0.114276","234.1"
"7.82321","3809.91","5.7288","0.114576","234.7"
"7.84328","3811.18","5.7421","0.114842","235.3"
"7.86331","3812.74","5.7572","0.115144","235.9"
"7.88329","3814.01","5.7732","0.115464","236.5"
"7.90332","3815.33","5.7845","0.11569","237.1"
"7.9232","3816.18","5.7988","0.115976","237.7"
"7.94328","3817.32","5.8143","0.116286","238.3"
"7.96321","3818.14","5.831","0.11662","238.9"
"7.98329","3819.76","5.8444","0.116888","239.5"
"8.00327","3820.86","5.8566","0.117132","240.1"
"8.02329","3822.26","5.874","0.11748","240.7"
"8.04327","3822.99","5.8865","0.11773","241.3"
"8.06325","3824.21","5.9022","0.118044","241.9"
"8.08323","3825.28","5.9196","0.118392","242.5"
"8.10321","3826.14","5.9288","0.118576","243.1"
"8.12329","3827.89","5.947","0.11894","243.7"
"8.14327","3828.87","5.9596","0.119192","244.3"
"8.1633","3830.27","5.9725","0.11945","244.9"
"8.18332","3831.09","5.9908","0.119816","245.5"
"8.20326","3832.24","6.0024","0.120048","246.1"
"8.22328","3833.34","6.0178","0.120356","246.7"
"8.24322","3834.28","6.0346","0.120692","247.3"
"8.26324","3835.32","6.046","0.12092","247.9"
"8.28332","3836.76","6.0591","0.121182","248.5"
"8.30325","3837.54","6.0757","0.121514","249.1"
"8.32332","3839.01","6.0874","0.121748","249.7"
"8.34321","3840.14","6.1013","0.122026","250.3"
"8.36324","3840.96","6.1172","0.122344","250.9"
"8.38322","3841.61","6.1274","0.122548","251.5"
"8.40325","3842.91","6.1451","0.122902","252.1"
"8.42327","3844.43","6.1518","0.123036","252.7"
"8.4433","3845.6","6.1713","0.123426","253.3"
"8.46328","3846.22","6.1864","0.123728","253.9"
"8.48326","3846.95","6.1961","0.123922","254.5"
"8.50324","3848.15","6.2183","0.124366","255.1"
"8.52322","3848.92","6.2298","0.124596","255.7"
"8.54325","3850.22","6.2417","0.124834","256.3"
"8.56332","3851.52","6.2572","0.125144","256.9"
"8.58326","3852.71","6.2707","0.125414","257.5"
"8.60328","3853.9","6.2851","0.125702","258.1"
"8.62322","3854.28","6.2985","0.12597","258.7"
"8.64325","3855.1","6.3147","0.126294","259.3"
"8.66327","3856.56","6.3259","0.126518","259.9"
"8.68325","3857.33","6.3386","0.126772","260.5"
"8.70333","3858.84","6.3569","0.127138","261.1"
"8.72326","3859.32","6.3648","0.127296","261.7"
"8.74329","3860.68","6.3851","0.127702","262.3"
"8.76322","3861.19","6.3941","0.127882","262.9"
"8.78325","3862.47","6.4077","0.128154","263.5"
"8.80323","3863.31","6.4286","0.128572","264.1"
"8.8233","3864.61","6.4328","0.128656","264.7"
"8.84328","3865.29","6.4523","0.129074","265.3"
"8.86331","3866.07","6.4641","0.129282","265.9"
"8.88324","3867.18","6.4787","0.129574","266.5"
"8.90322","3868.07","6.4894","0.129788","267.1"
"8.92325","3868.99","6.5058","0.130116","267.7"
"8.94323","3869.9","6.5222","0.130444","268.3"
"8.96326","3871.17","6.5353","0.130706","268.9"
"8.98333","3872.24","6.5494","0.130988","269.5"
"9.00327","3873.16","6.5632","0.131264","270.1"
"9.02329","3874.22","6.5764","0.131528","270.7"
"9.04323","3875.2","6.5953","0.131906","271.3"
"9.06321","3875.7","6.6075","0.13215","271.9"
"9.08328","3876.94","6.622","0.13244","272.5"
"9.10326","3877.72","6.6356","0.132712","273.1"
"9.12333","3879.04","6.6513","0.133026","273.7"
"9.14332","3879.68","6.6592","0.133184","274.3"
"9.1633","3880.85","6.6789","0.133578","274.9"
"9.18323","3881.31","6.69","0.1338","275.5"
"9.20326","3882.38","6.7055","0.13411","276.1"
"9.22324","3883.35","6.7227","0.134454","276.7"
"9.24331","3884.65","6.7322","0.134644","277.3"
"9.26329","3885.51","6.7497","0.134994","277.9"
"9.28327","3886.26","6.7609","0.135218","278.5"
"9.30325","3886.91","6.7781","0.135562","279.1"
"9.32323","3887.97","6.795","0.1359","279.7"
"9.34321","3888.71","6.8086","0.136172","280.3"
"9.36324","3889.73","6.8189","0.136378","280.9"
"9.38327","3890.75","6.8358","0.136716","281.5"
"9.40329","3891.07","6.8465","0.13693","282.1"
"9.42327","3891.86","6.8644","0.137288","282.7"
"9.44326","3892.05","6.8724","0.137448","283.3"
"9.46324","3892.83","6.8898","0.137796","283.9"
"9.48326","3893.75","6.9055","0.13811","284.5"
"9.50324","3894.82","6.9178","0.138356","285.1"
"9.52332","3895.88","6.9275","0.13855","285.7"
"9.5433","3896.58","6.9458","0.138916","286.3"
"9.56328","3897.36","6.961","0.139188","286.9"
"9.5833","3898.26","6.9727","0.139454","287.5"
"9.60319","3898.7","6.9871","0.139742","288.1"
"9.62327","3899.77","6.9975","0.13995","288.7"
"9.64325","3900.17","7.0125","0.14025","289.3"
"9.66327","3901.28","7.0288","0.140576","289.9"
"9.6833","3902.18","7.0363","0.140726","290.5"
"9.70328","3902.37","7.0488","0.140976","291.1"
"9.72326","3903.2","7.0651","0.141302","291.7"
"9.7432","3903.91","7.0773","0.141546","292.3"
"9.76322","3904.69","7.0944","0.141888","292.9"
"9.7833","3905.6","7.1076","0.142152","293.5"
"9.80328","3906.6","7.1229","0.142458","294.1"
"9.8233","3907.51","7.1305","0.14261","294.7"
"9.84328","3908.69","7.1469","0.142938","295.3"
"9.86326","3909.28","7.1655","0.14331","295.9"
"9.8832","3909.63","7.1743","0.143486","296.5"
"9.90327","3910.97","7.1852","0.143704","297.1"
"9.9233","3911.64","7.201","0.14402","297.7"
"9.94328","3912.61","7.2145","0.14429","298.3"
"9.96331","3913.57","7.23","0.1446","298.9"
"9.98324","3913.88","7.2404","0.144808","299.5"
"10.0033","3914.93","7.2546","0.145092","300.1"
"10.0232","3915.3","7.2701","0.145402","300.7"
"10.0433","3916.37","7.2832","0.145664","301.3"
"10.0633","3917.33","7.2994","0.145988","301.9"
"10.0833","3918.34","7.3098","0.146196","302.5"
"10.1033","3919","7.3279","0.146558","303.1"
"10.1232","3919.68","7.3392","0.146784","303.7"
"10.1432","3920.37","7.3498","0.146996","304.3"
"10.1633","3921.04","7.3625","0.14725","304.9"
"10.1832","3922.19","7.3857","0.147714","305.5"
"10.2033","3922.65","7.3984","0.147968","306.1"
"10.2233","3923.69","7.4053","0.148106","306.7"
"10.2433","3924.16","7.4197","0.148394","307.3"
"10.2632","3925","7.4364","0.148728","307.9"
"10.2832","3925.59","7.4483","0.148966","308.5"
"10.3033","3926.35","7.4625","0.14925","309.1"
"10.3232","3927.27","7.4755","0.14951","309.7"
"10.3433","3927.73","7.4965","0.14993","310.3"
"10.3633","3928.1","7.5071","0.150142","310.9"
"10.3834","3929.1","7.5182","0.150364","311.5"
"10.4032","3929.44","7.532","0.15064","312.1"
"10.4232","3930.46","7.5474","0.150948","312.7"
"10.4432","3930.62","7.5663","0.151326","313.3"
"10.4632","3931.38","7.5724","0.151448","313.9"
"10.4833","3932.15","7.5899","0.151798","314.5"
"10.5033","3932.73","7.6042","0.152084","315.1"
"10.5233","3933.13","7.6167","0.152334","315.7"
"10.5433","3934.28","7.6276","0.152552","316.3"
"10.5632","3934.56","7.6451","0.152902","316.9"
"10.5832","3935.15","7.654","0.15308","317.5"
"10.6033","3936.05","7.6689","0.153378","318.1"
"10.6233","3937.27","7.6834","0.153668","318.7"
"10.6433","3937.67","7.6955","0.15391","319.3"
"10.6633","3938.1","7.7133","0.154266","319.9"
"10.6833","3938.76","7.7221","0.154442","320.5"
"10.7032","3939.52","7.7357","0.154714","321.1"
"10.7233","3940.4","7.7509","0.155018","321.7"
"10.7432","3940.98","7.7676","0.155352","322.3"
"10.7633","3942.14","7.7795","0.15559","322.9"
"10.7833","3942.21","7.7936","0.155872","323.5"
"10.8033","3942.79","7.8059","0.156118","324.1"
"10.8233","3943.16","7.8214","0.156428","324.7"
"10.8432","3943.95","7.8383","0.156766","325.3"
"10.8632","3944.81","7.8505","0.15701","325.9"
"10.8833","3945.37","7.8606","0.157212","326.5"
"10.9033","3946.14","7.8786","0.157572","327.1"
"10.9233","3946.78","7.8842","0.157684","327.7"
"10.9433","3947.21","7.9044","0.158088","328.3"
"10.9633","3948.04","7.917","0.15834","328.9"
"10.9832","3948.48","7.93","0.1586","329.5"
"11.0032","3949.23","7.9453","0.158906","330.1"
"11.0233","3950.03","7.9581","0.159162","330.7"
"11.0433","3950.75","7.9698","0.159292","331.3"
"11.0633","3951.45","7.9786","0.159572","331.9"
"11.0833","3951.95","7.9979","0.159958","332.5"
"11.1032","3952.53","8.0102","0.160204","333.1"
"11.1232","3953.07","8.0212","0.160424","333.7"
"11.1433","3953.77","8.0393","0.160786","334.3"
"11.1633","3954.38","8.0567","0.161134","334.9"
"11.1833","3955.34","8.0588","0.161176","335.5"
"11.2033","3955.76","8.0767","0.161534","336.1"
"11.2233","3955.96","8.0874","0.161748","336.7"
"11.2432","3956.1","8.1036","0.162072","337.3"
"11.2632","3957.11","8.1141","0.162282","337.9"
"11.2832","3957.69","8.1297","0.162594","338.5"
"11.3033","3959.06","8.1432","0.162864","339.1"
"11.3233","3959.29","8.1577","0.163154","339.7"
"11.3433","3959.98","8.1717","0.163434","340.3"
"11.3633","3960.33","8.185","0.1637","340.9"
"11.3832","3960.44","8.1972","0.163944","341.5"
"11.4032","3960.81","8.216","0.16432","342.1"
"11.4232","3961.21","8.2192","0.164384","342.7"
"11.4433","3962.37","8.2341","0.164682","343.3"
"11.4633","3962.85","8.2525","0.16505","343.9"
"11.4833","3963.56","8.2654","0.165308","344.5"
"11.5033","3964.17","8.2804","0.165608","345.1"
"11.5232","3965.05","8.2942","0.165884","345.7"
"11.5433","3965.25","8.3064","0.166128","346.3"
"11.5633","3966.22","8.3163","0.166326","346.9"
"11.5833","3966.79","8.3312","0.166624","347.5"
"11.6033","3967.72","8.3414","0.166828","348.1"
"11.6233","3967.93","8.3593","0.167186","348.7"
"11.6433","3968.81","8.3722","0.167444","349.3"
"11.6632","3969.16","8.3856","0.167712","349.9"
"11.6833","3969.91","8.3944","0.167888","350.5"
"11.7032","3970.19","8.4056","0.168112","351.1"
"11.7233","3971.33","8.428","0.16856","351.7"
"11.7433","3972.19","8.4347","0.168694","352.3"
"11.7633","3972.56","8.4537","0.169074","352.9"
"11.7833","3973.17","8.4602","0.169204","353.5"
"11.8032","3973.41","8.4737","0.169474","354.1"
"11.8232","3974.1","8.4964","0.169928","354.7"
"11.8433","3974.82","8.4985","0.16997","355.3"
"11.8633","3975.27","8.5212","0.170424","355.9"
"11.8833","3976.31","8.5308","0.170616","356.5"
"11.9033","3976.7","8.5423","0.170846","357.1"
"11.9233","3977.35","8.5589","0.171178","357.7"
"11.9432","3977.45","8.5678","0.171356","358.3"
"11.9632","3978.27","8.5819","0.171638","358.9"
"11.9833","3978.8","8.6003","0.172006","359.5"
"12.0033","3979.1","8.6075","0.17215","360.1"
"12.0233","3979.82","8.6282","0.172564","360.7"
"12.0433","3980.13","8.6396","0.172792","361.3"
"12.0633","3981.03","8.6467","0.172934","361.9"
"12.0832","3981.24","8.6698","0.173396","362.5"
"12.1033","3982.34","8.6782","0.173564","363.1"
"12.1232","3982.78","8.6946","0.173892","363.7"
"12.1433","3983.2","8.7073","0.174146","364.3"
"12.1633","3983.94","8.7143","0.174286","364.9"
"12.1833","3984.52","8.7356","0.174712","365.5"
"12.2033","3984.92","8.7369","0.174738","366.1"
"12.2232","3985.64","8.7551","0.175102","366.7"
"12.2432","3986.04","8.7629","0.175258","367.3"
"12.2633","3986.6","8.7862","0.175724","367.9"
"12.2833","3987.37","8.796","0.17592","368.5"
"12.3033","3987.95","8.8132","0.176264","369.1"
"12.3233","3988.89","8.8214","0.176502","369.7"
"12.3432","3988.98","8.8391","0.176782","370.3"
"12.3632","3989.47","8.8468","0.176936","370.9"
"12.3832","3990","8.8641","0.177282","371.5"
"12.4033","3990.73","8.8741","0.177482","372.1"
"12.4233","3991.56","8.8838","0.177676","372.7"
"12.4433","3992","8.9059","0.178118","373.3"
"12.4632","3992.16","8.9158","0.178316","373.9"
"12.4833","3992.89","8.9298","0.178596","374.5"
"12.5032","3993.16","8.9451","0.178902","375.1"
"12.5233","3993.68","8.9576","0.179152","375.7"
"12.5433","3994.65","8.9692","0.179384","376.3"
"12.5633","3995.32","8.9807","0.179614","376.9"
"12.5833","3995.66","9.0048","0.180096","377.5"
"12.6032","3996.39","9.0084","0.180168","378.1"
"12.6232","3996.48","9.0251","0.180502","378.7"
"12.6432","3997.2","9.0373","0.180746","379.3"
"12.6632","3997.6","9.0426","0.180852","379.9"
"12.6833","3998.22","9.0655","0.18131","380.5"
"12.7033","3999.04","9.0796","0.181592","381.1"
"12.7233","3999.54","9.0849","0.181698","381.7"
"12.7433","3999.88","9.1041","0.182082","382.3"
"12.7633","4000.31","9.1112","0.182224","382.9"
"12.7832","4001.09","9.1216","0.182432","383.5"
"12.8033","4001.36","9.1431","0.182862","384.1"
"12.8233","4001.95","9.1539","0.183078","384.7"
"12.8433","4002.54","9.163","0.18326","385.3"
"12.8633","4003.35","9.1825","0.18365","385.9"
"12.8832","4003.59","9.19","0.1838","386.5"
"12.9033","4004.2","9.2093","0.184186","387.1"
"12.9232","4004.31","9.2132","0.184264","387.7"
"12.9433","4004.71","9.2301","0.184602","388.3"
"12.9633","4005.54","9.2349","0.184698","388.9"
"12.9833","4006.31","9.2609","0.185218","389.5"
"13.0033","4006.67","9.2731","0.185462","390.1"
"13.0232","4007.41","9.2786","0.185572","390.7"
"13.0432","4007.5","9.2877","0.185754","391.3"
"13.0632","4007.62","9.309","0.18618","391.9"
"13.0833","4008.39","9.3211","0.186422","392.5"
"13.1033","4008.28","9.341","0.18682","393.1"
"13.1233","4009.06","9.339","0.18678","393.7"
"13.1433","4009.4","9.3584","0.187168","394.3"
"13.1632","4009.33","9.3772","0.187544","394.9"
"13.1833","4009.98","9.3859","0.187718","395.5"
"13.2033","4010.4","9.3984","0.187968","396.1"
"13.2232","4011.03","9.4102","0.188204","396.7"
"13.2433","4012.18","9.4203","0.188406","397.3"
"13.2632","4011.83","9.4362","0.188724","397.9"
"13.2833","4012.64","9.4419","0.188838","398.5"
"13.3032","4012.65","9.4649","0.189298","399.1"
"13.3232","4013.57","9.4732","0.189464","399.7"
"13.3432","4013.64","9.4879","0.189758","400.3"
"13.3633","4014.58","9.5025","0.19005","400.9"
"13.3833","4014.49","9.513","0.19026","401.5"
"13.4033","4015.27","9.5292","0.190584","402.1"
"13.4233","4015.73","9.5341","0.190682","402.7"
"13.4433","4016.24","9.5549","0.191098","403.3"
"13.4632","4016.67","9.5685","0.19137","403.9"
"13.4832","4016.78","9.5743","0.191486","404.5"
"13.5032","4017.6","9.584","0.19168","405.1"
"13.5233","4018","9.5967","0.191934","405.7"
"13.5433","4018.59","9.615","0.1923","406.3"
"13.5633","4019.1","9.625","0.1925","406.9"
"13.5833","4019.35","9.6447","0.192894","407.5"
"13.6032","4019","9.6516","0.193032","408.1"
"13.6233","4019.58","9.6593","0.193186","408.7"
"13.6432","4020.09","9.6744","0.193488","409.3"
"13.6634","4021.19","9.6869","0.193738","409.9"
"13.6833","4021.55","9.6997","0.193994","410.5"
"13.7033","4021.97","9.7131","0.194262","411.1"
"13.7232","4021.99","9.7358","0.194716","411.7"
"13.7432","4022.34","9.7388","0.194776","412.3"
"13.7632","4022.73","9.7588","0.195176","412.9"
"13.7833","4023.5","9.7679","0.195358","413.5"
"13.8033","4024.33","9.7763","0.195526","414.1"
"13.8233","4024.69","9.7993","0.195986","414.7"
"13.8432","4025.01","9.8098","0.196196","415.3"
"13.8632","4025.11","9.8161","0.196322","415.9"
"13.8832","4025.7","9.8279","0.196558","416.5"
"13.9033","4026.35","9.8442","0.196884","417.1"
"13.9233","4026.6","9.8584","0.197168","417.7"
"13.9433","4027.52","9.8625","0.19725","418.3"
"13.9633","4027.38","9.8803","0.197606","418.9"
"13.9833","4027.81","9.8976","0.197952","419.5"
"14.0033","4028.55","9.9048","0.198096","420.1"
"14.0232","4028.87","9.9263","0.198526","420.7"
"14.0433","4028.56","9.9345","0.19869","421.3"
"14.0633","4028.6","9.9452","0.198904","421.9"
"14.0833","4029.54","9.9672","0.199344","422.5"
"14.1033","4029.79","9.9734","0.199468","423.1"
"14.1233","4030.53","9.9826","0.199652","423.7"
"14.1432","4030.45","9.9948","0.199896","424.3"
"14.1633","4031.02","10.0057","0.200114","424.9"
"14.1832","4031.28","10.02","0.2004","425.5"
"14.2033","4031.7","10.0331","0.200662","426.1"
"14.2233","4032.48","10.0524","0.201048","426.7"
"14.2433","4032.77","10.0624","0.201248","427.3"
"14.2632","4033.12","10.0688","0.201376","427.9"
"14.2832","4033.51","10.0894","0.201788","428.5"
"14.3032","4033.875","10.0997","0.201994","429.1"
"14.3232","4034.25","10.1167","0.20211","429.7"
"14.3433","4035.01","10.1249","0.202498","430.3"
"14.3633","4035.82","10.1415","0.20283","430.9"
"14.3833","4036.28","10.1419","0.202838","431.5"
"14.4033","4036.43","10.169","0.20338","432.1"
"14.4232","4036.67","10.1687","0.203374","432.7"
"14.4433","4037.08","10.1892","0.203784","433.3"
"14.4633","4037.54","10.1897","0.203794","433.9"
"14.4833","4038.4","10.2134","0.204268","434.5"
"14.5033","4038.76","10.2189","0.204378","435.1"
"14.5233","4038.95","10.2422","0.204844","435.7"
"14.5433","4039.31","10.2443","0.204886","436.3"
"14.5632","4039.54","10.2589","0.205178","436.9"
"14.5833","4040.49","10.2694","0.205388","437.5"
"14.6032","4040.53","10.284","0.20568","438.1"
"14.6233","4041.4","10.2913","0.205826","438.7"
"14.6433","4041.92","10.3176","0.206352","439.3"
"14.6633","4042.23","10.3319","0.206638","439.9"
"14.6833","4042.48","10.3444","0.206888","440.5"
"14.7032","4042.88","10.3437","0.206874","441.1"
"14.7232","4043.11","10.3653","0.207306","441.7"
"14.7432","4043.6","10.3746","0.207492","442.3"
"14.7633","4044.15","10.3797","0.207594","442.9"
"14.7833","4044.75","10.4039","0.208078","443.5"
"14.8033","4045.42","10.4062","0.208124","444.1"
"14.8233","4045.42","10.4174","0.208348","444.7"
"14.8432","4045.86","10.4363","0.208726","445.3"
"14.8633","4046.07","10.4426","0.208852","445.9"
"14.8833","4046.57","10.4661","0.209322","446.5"
"14.9033","4047.21","10.4762","0.209524","447.1"
"14.9233","4047.96","10.4873","0.209746","447.7"
"14.9432","4047.88","10.4933","0.209866","448.3"
"14.9633","4048.72","10.5134","0.210268","448.9"
"14.9832","4048.19","10.5271","0.210542","449.5"
"15.0033","4048.92","10.5295","0.21059","450.1"
"15.0233","4049.8","10.5493","0.210986","450.7"
"15.0433","4050.25","10.5637","0.211274","451.3"
"15.0633","4050.72","10.5698","0.211396","451.9"
"15.0832","4050.58","10.5759","0.211518","452.5"
"15.1032","4050.89","10.5967","0.211934","453.1"
"15.1232","4051.4","10.6108","0.212216","453.7"
"15.1432","4051.81","10.6166","0.212332","454.3"
"15.1633","4052.55","10.6303","0.212606","454.9"
"15.1833","4052.96","10.6406","0.212812","455.5"
"15.2033","4053.45","10.6636","0.213272","456.1"
"15.2232","4053.61","10.662","0.21324","456.7"
"15.2433","4054.28","10.6852","0.213704","457.3"
"15.2632","4054.41","10.6932","0.213864","457.9"
"15.2833","4054.83","10.7016","0.214032","458.5"
"15.3033","4055.51","10.7203","0.214406","459.1"
"15.3232","4055.33","10.7363","0.214726","459.7"
"15.3434","4056.12","10.7497","0.214994","460.3"
"15.3632","4055.96","10.766","0.21532","460.9"
"15.3833","4056.79","10.762","0.21524","461.5"
"15.4032","4056.62","10.7745","0.21549","462.1"
"15.4232","4057.12","10.7945","0.21589","462.7"
"15.4433","4057.78","10.8085","0.21617","463.3"
"15.4633","4058.15","10.8177","0.216354","463.9"
"15.4833","4058.5","10.8338","0.216676","464.5"
"15.5033","4058.89","10.8413","0.216826","465.1"
"15.5232","4059.27","10.8632","0.217264","465.7"
"15.5432","4059.38","10.8681","0.217362","466.3"
"15.5633","4059.89","10.8811","0.217622","466.9"
"15.5833","4060.34","10.8961","0.217922","467.5"
"15.6033","4060.78","10.9146","0.218292","468.1"
"15.6233","4061.29","10.9203","0.218406","468.7"
"15.6433","4061.58","10.9253","0.218506","469.3"
"15.6632","4061.86","10.9477","0.218954","469.9"
"15.6833","4062.06","10.96","0.2192","470.5"
"15.7032","4062.69","10.9691","0.219268","471.1"
"15.7234","4063.53","10.9809","0.219618","471.7"
"15.7433","4063.24","10.9918","0.219836","472.3"
"15.7633","4063.94","11.0108","0.220216","472.9"
"15.7832","4063.84","11.0136","0.220272","473.5"
"15.8032","4064.3","11.0265","0.22053","474.1"
"15.8232","4064.97","11.043","0.22086","474.7"
"15.8433","4065.43","11.0597","0.221194","475.3"
"15.8633","4065.82","11.0712","0.221424","475.9"
"15.8833","4066.09","11.0869","0.221738","476.5"
"15.9033","4066.31","11.0851","0.221702","477.1"
"15.9233","4066.89","11.1032","0.222064","477.7"
"15.9432","4067.11","11.1179","0.222358","478.3"
"15.9632","4067.72","11.1275","0.22255","478.9"
"15.9833","4068.25","11.1412","0.222824","479.5"
"16.0033","4068.78","11.1485","0.22297","480.1"
"16.0233","4068.99","11.1697","0.223394","480.7"
"16.0433","4069.22","11.1721","0.223442","481.3"
"16.0633","4069.46","11.1852","0.223704","481.9"
"16.0832","4069.57","11.1987","0.223974","482.5"
"16.1033","4070.02","11.2141","0.224282","483.1"
"16.1232","4070.47","11.2207","0.224414","483.7"
"16.1433","4071.11","11.2327","0.224654","484.3"
"16.1633","4071.23","11.2546","0.225092","484.9"
"16.1833","4071.86","11.2561","0.225122","485.5"
"16.2032","4071.83","11.2708","0.225416","486.1"
"16.2232","4072.14","11.2828","0.225656","486.7"
"16.2432","4072.44","11.2885","0.22577","487.3"
"16.2633","4073.25","11.307","0.22614","487.9"
"16.2833","4073.47","11.3241","0.226482","488.5"
"16.3033","4074.04","11.3284","0.226568","489.1"
"16.3233","4074.15","11.3453","0.226906","489.7"
"16.3432","4074.23","11.3676","0.227352","490.3"
"16.3632","4074.75","11.3654","0.227308","490.9"
"16.3832","4074.59","11.3757","0.227514","491.5"
"16.4033","4074.56","11.3864","0.227728","492.1"
"16.4233","4074.95","11.3981","0.227962","492.7"
"16.4433","4075.2","11.4182","0.228364","493.3"
"16.4633","4075.09","11.4188","0.228376","493.9"
"16.4832","4075.43","11.4421","0.228842","494.5"
"16.5032","4076.12","11.4412","0.228824","495.1"
"16.5233","4076.54","11.4557","0.229114","495.7"
"16.5433","4077.18","11.4783","0.229566","496.3"
"16.5633","4077.49","11.4793","0.229586","496.9"
"16.5833","4077.79","11.5005","0.23001","497.5"
"16.6033","4077.89","11.5061","0.230122","498.1"
"16.6232","4077.64","11.5232","0.230464","498.7"
"16.6433","4078.62","11.535","0.2307","499.3"
"16.6632","4078.4","11.5457","0.230914","499.9"
"16.6833","4079.08","11.5505","0.23101","500.5"
"16.7033","4079.32","11.5628","0.231256","501.1"
"16.7233","4079.73","11.5786","0.231572","501.7"
"16.7433","4080.07","11.5983","0.231966","502.3"
"16.7632","4080.29","11.5991","0.231982","502.9"
"16.7832","4080.23","11.6095","0.23219","503.5"
"16.8033","4080.7","11.6282","0.232564","504.1"
"16.8233","4081.15","11.6348","0.232696","504.7"
"16.8433","4081.68","11.6487","0.232974","505.3"
"16.8633","4082.06","11.6604","0.233208","505.9"
"16.8832","4082.26","11.6862","0.233724","506.5"
"16.9032","4082.22","11.6907","0.233814","507.1"
"16.9232","4082.1","11.7073","0.234146","507.7"
"16.9433","4082.54","11.7108","0.234216","508.3"
"16.9633","4083.32","11.7251","0.234502","508.9"
"16.9833","4083.85","11.7406","0.234812","509.5"
"17.0033","4083.52","11.7479","0.234958","510.1"
"17.0233","4084.13","11.746","0.23492","510.7"
"17.0432","4084.03","11.7596","0.235192","511.3"
"17.0633","4084.34","11.7785","0.23557","511.9"
"17.0832","4084.97","11.7887","0.235774","512.5"
"17.1033","4085.18","11.8017","0.236034","513.1"
"17.1233","4085.57","11.8154","0.236308","513.7"
"17.1433","4085.34","11.8364","0.236728","514.3"
"17.1633","4085.79","11.8344","0.236688","514.9"
"17.1832","4086.09","11.8455","0.23691","515.5"
"17.2032","4085.82","11.8541","0.237082","516.1"
"17.2233","4085.95","11.8683","0.237366","516.7"
"17.2433","4086.01","11.8731","0.237462","517.3"
"17.2633","4086.41","11.8995","0.23799","517.9"
"17.2833","4086.71","11.9071","0.238142","518.5"
"17.3033","4086.89","11.912","0.23824","519.1"
"17.3232","4087.45","11.9332","0.238664","519.7"
"17.3432","4087.59","11.9373","0.238746","520.3"
"17.3633","4088.44","11.952","0.23904","520.9"
"17.3833","4088.15","11.9677","0.239354","521.5"
"17.4033","4089.08","11.9685","0.23937","522.1"
"17.4233","4088.95","11.977","0.23954","522.7"
"17.4433","4089.48","11.9889","0.240102","523.3"
"17.4632","4089.44","12.0057","0.240114","523.9"
"17.4833","4089.72","12.0149","0.240298","524.5"
"17.5032","4090.09","12.0246","0.240492","525.1"
"17.5233","4090.28","12.043","0.24086","525.7"
"17.5433","4090.18","12.046","0.24092","526.3"
"17.5633","4090.07","12.07","0.2414","526.9"
"17.5832","4090.05","12.0778","0.241556","527.5"
"17.6032","4090.2","12.091","0.24182","528.1"
"17.6232","4090.74","12.1084","0.242168","528.7"
"17.6433","4091.34","12.1055","0.24211","529.3"
"17.6633","4091.81","12.1209","0.242418","529.9"
"17.6833","4091.97","12.136","0.24272","530.5"
"17.7032","4092.3","12.1506","0.243012","531.1"
"17.7233","4092.06","12.154","0.24308","531.7"
"17.7432","4092.35","12.1687","0.243374","532.3"
"17.7633","4092.87","12.1814","0.243628","532.9"
"17.7833","4093.2","12.1927","0.243854","533.5"
"17.8033","4093.36","12.1936","0.243872","534.1"
"17.8233","4093.54","12.2065","0.24413","534.7"
"17.8432","4093.47","12.2245","0.24449","535.3"
"17.8633","4093.85","12.2359","0.244718","535.9"
"17.8832","4093.8","12.2418","0.244836","536.5"
"17.9033","4094.23","12.2499","0.244998","537.1"
"17.9233","4094.35","12.2592","0.245184","537.7"
"17.9433","4094.77","12.2831","0.245662","538.3"
"17.9633","4094.85","12.2945","0.24589","538.9"
"17.9833","4095.12","12.2982","0.245964","539.5"
"18.0032","4095.06","12.3193","0.246386","540.1"
"18.0232","4093.45","12.3324","0.246648","540.7"
"18.0433","4093.65","12.3251","0.246502","541.3"
"18.0633","4094.09","12.3536","0.247072","541.9"
"18.0833","4094.85","12.3634","0.247268","542.5"
"18.1033","4095","12.3704","0.247408","543.1"
"18.1232","4095.55","12.3728","0.247456","543.7"
"18.1433","4095.61","12.3962","0.247924","544.3"
"18.1632","4095.65","12.4001","0.248002","544.9"
"18.1832","4095.71","12.4052","0.248104","545.5"
"18.2034","4096.63","12.4279","0.248558","546.1"
"18.2233","4096.88","12.4338","0.248676","546.7"
"18.2433","4096.99","12.4389","0.248778","547.3"
"18.2632","4096.57","12.4472","0.248944","547.9"
"18.2832","4095.8","12.4656","0.249312","548.5"
"18.3033","4095.33","12.4644","0.249288","549.1"
"18.3233","4095.74","12.481","0.24962","549.7"
"18.3433","4096.08","12.4816","0.249632","550.3"
"18.3633","4096.44","12.493","0.24986","550.9"
"18.3833","4096.83","12.4997","0.249994","551.5"
"18.4033","4096.54","12.5241","0.250482","552.1"
"18.4232","4096.85","12.5282","0.250564","552.7"
"18.4432","4096.75","12.5524","0.251048","553.3"
"18.4633","4097.05","12.56","0.2512","553.9"
"18.4833","4097.17","12.5707","0.251414","554.5"
"18.5032","4097.25","12.5629","0.251258","555.1"
"18.5233","4095.94","12.5901","0.251802","555.7"
"18.5433","4095.29","12.5886","0.251772","556.3"
"18.5632","4095.55","12.6011","0.252022","556.9"
"18.5833","4095.5","12.6115","0.25223","557.5"
"18.6032","4095.88","12.6106","0.252212","558.1"
"18.6233","4096.51","12.638","0.25276","558.7"
"18.6433","4096.43","12.6396","0.252792","559.3"
"18.6633","4096.96","12.6426","0.252852","559.9"
"18.6833","4096.89","12.6656","0.253312","560.5"
"18.7032","4096.97","12.6667","0.253334","561.1"
"18.7232","4096.69","12.6748","0.253496","561.7"
"18.7433","4096.69","12.7006","0.254012","562.3"
"18.7633","4096.88","12.694","0.25388","562.9"
"18.7833","4094.74","12.7025","0.25405","563.5"
"18.8032","4094.72","12.7143","0.254286","564.1"
"18.8232","4094.61","12.7182","0.254364","564.7"
"18.8432","4094.81","12.7296","0.254592","565.3"
"18.8633","4094.94","12.7336","0.254672","565.9"
"18.8833","4095.05","12.759","0.25518","566.5"
"18.9033","4095.29","12.7467","0.254934","567.1"
"18.9233","4095.05","12.7777","0.255554","567.7"
"18.9433","4094.69","12.7766","0.255532","568.3"
"18.9633","4094.53","12.778","0.25556","568.9"
"18.9832","4091.33","12.8032","0.256064","569.5"
"19.0033","4090.37","12.8067","0.256134","570.1"
"19.0233","4090.04","12.8035","0.25607","570.7"
"19.0433","4089.8","12.8154","0.256308","571.3"
"19.0633","4085.77","12.8257","0.256514","571.9"
"19.0833","4084.62","12.8417","0.256576","572.5"
"19.1032","4084.21","12.8361","0.256722","573.1"
"19.1232","4083.66","12.8513","0.257026","573.7"
"19.1432","4077.58","12.843","0.25686","574.3"
"19.1633","4064.92","12.8588","0.257176","574.9"
"19.1833","4033.29","12.8566","0.257132","575.5"
"19.2033","3038.36","12.6933","0.253866","576.1"
"19.2233","2965.31","12.6684","0.253368","576.7"
"19.2432","2935.39","12.6544","0.253088","577.3"
"19.2633","2925.68","12.6447","0.252894","577.9"
"19.2832","2915.94","12.662","0.25324","578.5"
"19.3033","2912.62","12.6558","0.253116","579.1"
"19.3233","2904.52","12.6582","0.253164","579.7"
"19.3433","2877.77","12.6354","0.252708","580.3"
"19.3632","2796.31","12.6262","0.252524","580.9"
"19.3832","2607.55","12.5949","0.251898","581.5"
"19.4033","2501.86","12.5773","0.251546","582.1"
"19.4233","2323.85","12.5378","0.250756","582.7"
"19.4433","2206.2","12.504","0.25008","583.3"
"19.4633","2166.31","12.4849","0.249698","583.9"
"19.4833","2152.03","12.4818","0.249636","584.5"
"19.5033","2137.07","12.4849","0.249698","585.1"
"19.5232","2087.85","12.4778","0.249556","585.7"
"19.5303","-169.836","12.4869","0.249738","585.905"