File: experimental_data/tensile_specimen_test_data/tensile_test_data/20250312/original_data/without_extensometer/SSS 1 03-12-25 17 51 23 下午/数采：横梁, … - (实时值).csv
"文件路径: C:\Users\Lenovo\Desktop\Wayne\20250312\原始数据\无引伸计\SSS 1 03-12-25 17 51 23 下午\数采：横梁, … - (实时值).csv   "
"试验: MTS EM 拉伸试验-W 3"
"试验运行: SSS 1"
"日期: 2025/3/12 16:40:17"
""
""
"横梁 ","力 ","应变 ","应力 ","时间 "
"mm","N","mm/mm","N/mm²","sec"
"0.00405198","70.7468","3.33784e-05","3.62804","0.154"
"0.0279913","150.564","0.000232872","7.721245","0.854"
"0.0512785","226.473","0.000426933","11.614","1.554"
"0.0746123","299.909","0.000621769","15.38","2.254"
"0.0979927","370.949","0.000816218","19.023","2.954"
"0.121327","439.709","0.00101067","22.5492","3.654"
"0.144614","506.271","0.00120473","25.9626","4.354"
"0.167994","570.635","0.00139956","29.2633","5.054"
"0.191281","632.477","0.00159401","32.4347","5.754"
"0.214615","692.885","0.00178807","35.5325","6.454"
"0.237996","751.156","0.00198291","38.5208","7.154"
"0.261283","806.603","0.00217697","41.3642","7.854"
"0.284617","858.083","0.00237142","44.0043","8.554"
"0.308044","904.946","0.00256664","46.4075","9.254"
"0.331238","945.505","0.00276031","48.4874","9.954"
"0.354618","982.963","0.00295476","50.40838","10.654"
"0.377998","1017.06","0.00314999","52.15686","11.354"
"0.401286","1047.58","0.00334405","53.7222","12.054"
"0.42462","1076.22","0.0035385","55.191","12.754"
"0.448","1102.61","0.00373294","56.544","13.454"
"0.471287","1127.31","0.00392739","57.8105","14.154"
"0.494621","1151.06","0.00412145","59.029","14.854"
"0.517955","1173.36","0.00431629","60.1726","15.554"
"0.541289","1194.15","0.00451074","61.2383","16.254"
"0.564622","1214.31","0.0047048","62.2725","16.954"
"0.588003","1233.92","0.00489964","63.2778","17.654"
"0.61129","1252.28","0.00509408","64.21956","18.354"
"0.634577","1269.68","0.00528814","65.1116","19.054"
"0.658004","1286.94","0.00548298","65.99698","19.754"
"0.681292","1303.16","0.00567704","66.8287","20.454"
"0.704625","1318.96","0.00587149","67.6389","21.154"
"0.728006","1333.9","0.00606671","68.405","21.854"
"0.751293","1348.31","0.00626039","69.1442","22.554"
"0.77458","1362.17","0.00645483","69.85488","23.254"
"0.797961","1375.35","0.00664967","70.53072","23.954"
"0.821341","1388.42","0.00684412","71.201","24.654"
"0.844628","1400.81","0.00703818","71.83644","25.354"
"0.867962","1412.73","0.00723302","72.4476","26.054"
"0.891296","1424.15","0.00742708","73.0332","26.754"
"0.91463","1435.32","0.00762153","73.6062","27.454"
"0.937963","1446.09","0.00781636","74.1586","28.154"
"0.961297","1456.45","0.00801081","74.6895","28.854"
"0.984584","1466.47","0.00820448","75.2035","29.554"
"1.00801","1476.33","0.0084001","75.7092","30.254"
"1.03135","1485.69","0.00859416","76.1894","30.954"
"1.05459","1494.79","0.00878783","76.65612","31.654"
"1.07801","1503.9","0.00898305","77.1232","32.354"
"1.1013","1512.4","0.0091775","77.5589","33.054"
"1.12459","1520.58","0.00937156","77.97848","33.754"
"1.14801","1528.99","0.00956679","78.40968","34.454"
"1.1713","1536.76","0.00976046","78.8082","35.154"
"1.19459","1544.46","0.00995452","79.2029","35.854"
"1.21802","1552.19","0.0101497","79.5997","36.554"
"1.2413","1559.87","0.0103438","79.9932","37.254"
"1.26464","1566.85","0.0105383","80.3513","37.954"
"1.28797","1573.92","0.0107331","80.7137","38.654"
"1.3113","1580.91","0.0109271","81.0722","39.354"
"1.33459","1587.24","0.0111212","81.3969","40.054"
"1.35802","1594.12","0.0113164","81.7499","40.754"
"1.38135","1600.77","0.0115109","82.0908","41.454"
"1.40459","1606.82","0.0117046","82.4009","42.154"
"1.42802","1613.5","0.0118998","82.7436","42.854"
"1.45135","1619.52","0.0120942","83.0521","43.554"
"1.47459","1625.2","0.0122879","83.3435","44.254"
"1.49797","1631.61","0.0124831","83.6724","44.954"
"1.52131","1637.15","0.0126772","83.95664","45.654"
"1.5446","1642.88","0.0128716","84.25048","46.354"
"1.56802","1648.82","0.0130665","84.5549","47.054"
"1.59131","1654.32","0.0132605","84.8368","47.754"
"1.61464","1659.67","0.013455","85.1113","48.454"
"1.63798","1665.34","0.0136494","85.4021","49.154"
"1.66131","1670.45","0.0138439","85.6643","49.854"
"1.68465","1675.69","0.0140383","85.9326","50.554"
"1.70798","1681.1","0.0142332","86.21","51.254"
"1.73131","1686.21","0.0144272","86.4723","51.954"
"1.7546","1691.06","0.0146213","86.7212","52.654"
"1.77798","1696.35","0.0148161","86.9922","53.354"
"1.80136","1701.38","0.015011","87.2502","54.054"
"1.8246","1706.35","0.0152046","87.5052","54.754"
"1.84798","1711.1","0.0153995","87.7489","55.454"
"1.87136","1715.85","0.0155943","87.9923","56.154"
"1.8946","1720.51","0.015788","88.2314","56.854"
"1.91798","1725.64","0.0159828","88.4942","57.554"
"1.94132","1730.25","0.0161773","88.7306","58.254"
"1.96465","1734.84","0.0163717","88.9664","58.954"
"1.98799","1739.28","0.0165662","89.194","59.654"
"2.01132","1743.64","0.0167606","89.4174","60.354"
"2.03461","1747.88","0.0169547","89.6348","61.054"
"2.05799","1752.95","0.0171495","89.89504","61.754"
"2.08132","1757.26","0.0173439","90.1159","62.454"
"2.10461","1761.49","0.017538","90.333","63.154"
"2.12794","1765.86","0.0177328","90.55716","63.854"
"2.15137","1770.11","0.0179277","90.77472","64.554"
"2.17461","1774.5","0.0181214","90.9998","65.254"
"2.19794","1778.64","0.0183158","91.2121","65.954"
"2.22137","1783.02","0.018511","91.4371","66.654"
"2.24461","1787.06","0.0187047","91.6441","67.354"
"2.26799","1791.29","0.0188995","91.8612","68.054"
"2.29137","1795.7","0.0190944","92.0872","68.754"
"2.31461","1799.49","0.019288","92.2816","69.454"
"2.33795","1803.51","0.0194825","92.48772","70.154"
"2.36133","1807.45","0.0196773","92.6896","70.854"
"2.38461","1811.36","0.0198714","92.8901","71.554"
"2.40799","1815.65","0.0200666","93.11024","72.254"
"2.43133","1819.64","0.0202607","93.3149","72.954"
"2.45457","1823.24","0.0204547","93.4994","73.654"
"2.47795","1827.05","0.0206496","93.69496","74.354"
"2.50138","1831.33","0.0208444","93.9143","75.054"
"2.52462","1834.98","0.0210381","94.1018","75.754"
"2.54795","1838.89","0.0212325","94.3021","76.454"
"2.57133","1842.75","0.0214278","94.4998","77.154"
"2.59462","1846.42","0.0216214","94.68816","77.854"
"2.61795","1850.14","0.0218159","94.8789","78.554"
"2.64133","1854.23","0.0220111","95.0888","79.254"
"2.66462","1857.54","0.0222048","95.2585","79.954"
"2.688","1861.15","0.0223996","95.44372","80.654"
"2.71133","1865.03","0.0225944","95.6425","81.354"
"2.73457","1868.3","0.0227881","95.8101","82.054"
"2.758","1872.19","0.022983","96.0099","82.754"
"2.78129","1875.92","0.0231774","96.2011","83.454"
"2.80458","1878.92","0.0233715","96.35488","84.154"
"2.828","1882.89","0.0235663","96.55828","84.854"
"2.85134","1886.59","0.0237611","96.748","85.554"
"2.87462","1889.7","0.0239548","96.9075","86.254"
"2.89796","1893.6","0.0241493","97.1077","86.954"
"2.92134","1896.84","0.0243441","97.27364","87.654"
"2.94462","1900.26","0.0245385","97.4493","88.354"
"2.96796","1903.5","0.0247326","97.61524","89.054"
"2.99134","1907.27","0.0249274","97.8088","89.754"
"3.01463","1910.44","0.0251219","97.9715","90.454"
"3.03791","1913.86","0.0253159","98.1467","91.154"
"3.06134","1917.42","0.0255108","98.3292","91.854"
"3.08463","1920.73","0.0257048","98.499","92.554"
"3.10796","1924.07","0.0258997","98.6702","93.254"
"3.13134","1927.17","0.0260941","98.82948","93.954"
"3.15458","1930.1","0.0262878","98.9796","94.654"
"3.17796","1933.61","0.0264826","99.1594","95.354"
"3.20134","1937.53","0.0266775","99.36068","96.054"
"3.22463","1940.22","0.0268715","99.49872","96.754"
"3.24796","1943.44","0.027066","99.6637","97.454"
"3.27134","1946.78","0.0272608","99.8351","98.154"
"3.29463","1949.88","0.0274553","99.994","98.854"
"3.31792","1953.07","0.0276493","100.158","99.554"
"3.3413","1956.24","0.0278438","100.32","100.254"
"3.36468","1959.41","0.0280386","100.482","100.954"
"3.38792","1962.42","0.0282327","100.637","101.654"
"3.41135","1965.55","0.0284275","100.798","102.354"
"3.43468","1968.47","0.028622","100.947","103.054"
"3.45792","1971.41","0.0288156","101.098","103.754"
"3.4813","1974.63","0.0290109","101.263","104.454"
"3.50464","1977.6","0.0292049","101.415","105.154"
"3.52797","1980.69","0.0293994","101.574","105.854"
"3.5514","1983.84","0.0295946","101.736","106.554"
"3.57459","1986.45","0.0297883","101.869","107.254"
"3.59793","1989.37","0.0299823","102.019","107.954"
"3.62135","1992.52","0.0301775","102.18","108.654"
"3.64464","1995.28","0.030372","102.322","109.354"
"3.66797","1998.14","0.0305661","102.469","110.054"
"3.69131","2001.23","0.0307605","102.627","110.754"
"3.71464","2003.85","0.030955","102.762","111.454"
"3.73793","2006.78","0.0311494","102.912","112.154"
"3.76131","2009.72","0.0313442","103.063","112.854"
"3.78464","2012.24","0.0315383","103.192","113.554"
"3.80793","2015.12","0.0317324","103.339","114.254"
"3.83136","2018.07","0.0319276","103.491","114.954"
"3.85464","2020.75","0.0321216","103.628","115.654"
"3.87793","2023.29","0.0323157","103.759","116.354"
"3.90136","2026.4","0.0325109","103.918","117.054"
"3.9246","2028.61","0.032705","104.031","117.754"
"3.94793","2031.4","0.032899","104.174","118.454"
"3.97141","2034.46","0.0330947","104.331","119.154"
"3.99465","2036.99","0.0332883","104.461","119.854"
"4.01793","2039.4","0.0334824","104.585","120.554"
"4.04131","2042.1","0.0336772","104.723","121.254"
"4.06465","2044.45","0.0338717","104.844","121.954"
"4.08798","2047.08","0.0340661","104.979","122.654"
"4.11132","2050.06","0.0342606","105.131","123.354"
"4.13465","2052.19","0.034455","105.24","124.054"
"4.15794","2054.6","0.0346495","105.364","124.754"
"4.18132","2057.24","0.0348439","105.5","125.454"
"4.20465","2060.01","0.0350388","105.642","126.154"
"4.22794","2062.36","0.0352324","105.762","126.854"
"4.25137","2065.09","0.0354277","105.902","127.554"
"4.27465","2067.17","0.0356217","106.009","128.254"
"4.29789","2069.28","0.0358158","106.1168","128.954"
"4.32132","2072.08","0.036011","106.26","129.654"
"4.34465","2074.37","0.0362054","106.378","130.354"
"4.36794","2076.56","0.0363991","106.49","131.054"
"4.39132","2079.35","0.0365943","106.633","131.754"
"4.41466","2081.46","0.0367884","106.742","132.454"
"4.43794","2083.71","0.0369825","106.857","133.154"
"4.46132","2086.35","0.0371773","106.993","133.854"
"4.48461","2088.49","0.0373718","107.1022","134.554"
"4.50799","2090.61","0.0375662","107.211","135.254"
"4.53132","2092.83","0.0377606","107.325","135.954"
"4.55466","2095.19","0.0379551","107.446","136.654"
"4.57795","2097.41","0.0381492","107.56","137.354"
"4.60133","2099.75","0.038344","107.68","138.054"
"4.62466","2101.83","0.0385384","107.786","138.754"
"4.64795","2104.2","0.0387325","107.908","139.454"
"4.67133","2106.45","0.0389277","108.023","140.154"
"4.69471","2108.61","0.0391222","108.134","140.854"
"4.7179","2110.5","0.0393155","108.231","141.554"
"4.74128","2112.62","0.0395107","108.339","142.254"
"4.76466","2114.71","0.0397055","108.447","142.954"
"4.78795","2116.99","0.0398992","108.563","143.654"
"4.81133","2119.21","0.040094","108.677","144.354"
"4.83462","2120.97","0.0402885","108.768","145.054"
"4.85795","2123.01","0.0404825","108.872","145.754"
"4.88129","2125.14","0.0406774","108.981","146.454"
"4.90467","2127.23","0.0408718","109.089","147.154"
"4.92795","2129.36","0.0410659","109.198","147.854"
"4.95133","2131.31","0.0412607","109.298","148.554"
"4.97467","2133.15","0.0414552","109.392","149.254"
"4.99795","2135.14","0.0416492","109.494","149.954"
"5.02129","2136.97","0.0418441","109.588","150.654"
"5.04471","2139.51","0.0420389","109.718","151.354"
"5.06791","2140.65","0.0422322","109.777","152.054"
"5.09129","2142.71","0.0424274","109.882","152.754"
"5.11472","2144.69","0.0426222","109.984","153.454"
"5.13791","2146.75","0.0428159","110.09","154.154"
"5.16129","2148.23","0.0430104","110.166","154.854"
"5.18467","2150.21","0.0432052","110.267","155.554"
"5.20796","2152.06","0.0433993","110.362","156.254"
"5.23134","2153.92","0.0435941","110.457","156.954"
"5.25463","2155.85","0.0437885","110.556","157.654"
"5.27791","2157.47","0.0439822","110.639","158.354"
"5.30134","2159.08","0.0441774","110.722","159.054"
"5.32463","2161.04","0.0443719","110.823","159.754"
"5.34796","2162.66","0.044566","110.906","160.454"
"5.37129","2164.43","0.0447608","110.996","161.154"
"5.39468","2166.38","0.0449552","111.096","161.854"
"5.41796","2167.62","0.0451493","111.16","162.554"
"5.4413","2169.52","0.0453437","111.2572","163.254"
"5.46468","2171.44","0.045539","111.356","163.954"
"5.48796","2172.83","0.0457326","111.427","164.654"
"5.5113","2174.59","0.0459275","111.517","165.354"
"5.53468","2176.33","0.0461219","111.607","166.054"
"5.55797","2177.64","0.046316","111.674","166.754"
"5.5813","2179.57","0.0465104","111.7728","167.454"
"5.60463","2181.12","0.0467049","111.852","168.154"
"5.62792","2181.84","0.0468989","111.889","168.854"
"5.65135","2183.77","0.0470942","111.988","169.554"
"5.67463","2185.33","0.0472886","112.068","170.254"
"5.69792","2186.81","0.0474827","112.144","170.954"
"5.7213","2188.58","0.0476771","112.235","171.654"
"5.74468","2190.11","0.047872","112.3134","172.354"
"5.76797","2191.27","0.048066","112.373","173.054"
"5.7913","2193","0.0482605","112.462","173.754"
"5.81468","2194.8","0.0484553","112.554","174.454"
"5.83797","2195.69","0.0486494","112.6","175.154"
"5.86126","2197.51","0.0488434","112.693","175.854"
"5.88469","2199.01","0.0490387","112.77","176.554"
"5.90797","2200.2","0.0492327","112.831","177.254"
"5.93131","2201.93","0.0494272","112.92","177.954"
"5.95469","2203.38","0.049622","112.994","178.654"
"5.97793","2204.46","0.0498157","113.049","179.354"
"6.00131","2206.11","0.0500105","113.134","180.054"
"6.02464","2207.49","0.0502053","113.205","180.754"
"6.04798","2208.74","0.0503994","113.269","181.454"
"6.07131","2210.45","0.0505939","113.356","182.154"
"6.09469","2211.76","0.0507887","113.4238","182.854"
"6.11798","2212.9","0.0509828","113.482","183.554"
"6.14126","2214.41","0.0511768","113.56","184.254"
"6.16469","2215.91","0.051372","113.636","184.954"
"6.18798","2217.03","0.0515661","113.694","185.654"
"6.21127","2218.24","0.0517602","113.756","186.354"
"6.23465","2219.65","0.0519554","113.828","187.054"
"6.25803","2221.06","0.0521498","113.901","187.754"
"6.28127","2222.02","0.0523435","113.95","188.454"
"6.30465","2223.35","0.0525387","114.018","189.154"
"6.32794","2224.55","0.0527324","114.08","189.854"
"6.35132","2225.92","0.0529272","114.15","190.554"
"6.3747","2227.32","0.0531221","114.222","191.254"
"6.39794","2228.46","0.0533157","114.28","191.954"
"6.42127","2229.57","0.0535102","114.337","192.654"
"6.4447","2231.08","0.0537054","114.414","193.354"
"6.46794","2231.8","0.0538991","114.451","194.054"
"6.49132","2233.3","0.0540939","114.528","194.754"
"6.5147","2234.66","0.0542888","114.598","195.454"
"6.53794","2235.51","0.0544828","114.642","196.154"
"6.56127","2236.77","0.0546769","114.706","196.854"
"6.58465","2238.04","0.0548717","114.771","197.554"
"6.60799","2239.01","0.0550662","114.821","198.254"
"6.63127","2240.22","0.0552602","114.883","198.954"
"6.65465","2241.48","0.0554555","114.948","199.654"
"6.67799","2242.52","0.0556495","115.001","200.354"
"6.70128","2243.49","0.0558436","115.051","201.054"
"6.72466","2244.74","0.0560388","115.115","201.754"
"6.74794","2245.9","0.0562325","115.175","202.454"
"6.77128","2246.73","0.0564269","115.217","203.154"
"6.7947","2248.15","0.0566221","115.29","203.854"
"6.81794","2249.17","0.0568158","115.342","204.554"
"6.84128","2250.04","0.0570103","115.387","205.254"
"6.86466","2251.44","0.0572051","115.458","205.954"
"6.88799","2252.25","0.0573996","115.5","206.654"
"6.91128","2253.23","0.057594","115.55","207.354"
"6.93466","2254.5","0.0577885","115.615","208.054"
"6.95799","2255.48","0.0579829","115.665","208.754"
"6.98128","2256.43","0.058177","115.714","209.454"
"7.00462","2257.75","0.0583718","115.782","210.154"
"7.028","2258.29","0.0585662","115.81","210.854"
"7.05128","2259.55","0.0587603","115.874","211.554"
"7.07466","2260.8","0.0589551","115.938","212.254"
"7.098","2261.65","0.0591496","115.982","212.954"
"7.12124","2262.08","0.0593433","116.004","213.654"
"7.14466","2263.56","0.0595389","116.08","214.354"
"7.168","2264.44","0.0597329","116.125","215.054"
"7.19129","2265.5","0.059927","116.18","215.754"
"7.21467","2266.79","0.0601222","116.246","216.454"
"7.238","2267.24","0.0603163","116.268","217.154"
"7.26129","2268.13","0.0605103","116.314","217.854"
"7.28462","2269.5","0.0607052","116.384","218.554"
"7.308","2270.19","0.0608996","116.42","219.254"
"7.33129","2271.04","0.0610937","116.464","219.954"
"7.35462","2271.94","0.0612885","116.51","220.654"
"7.378","2272.95","0.061483","116.562","221.354"
"7.40129","2274.24","0.061677","116.628","222.054"
"7.42462","2274.85","0.0618715","116.659","222.754"
"7.448","2275.8","0.0620663","116.708","223.454"
"7.47125","2276.35","0.06226","116.736","224.154"
"7.49467","2277.32","0.0624556","116.786","224.854"
"7.51801","2278.58","0.06265","116.8502","225.554"
"7.54125","2279.04","0.0628433","116.874","226.254"
"7.56467","2280.06","0.0630386","116.926","226.954"
"7.58801","2280.87","0.063233","116.968","227.654"
"7.61125","2281.64","0.0634271","117.007","228.354"
"7.63468","2282.75","0.0636219","117.064","229.054"
"7.65796","2283.72","0.0638164","117.114","229.754"
"7.68125","2284.13","0.06401","117.135","230.454"
"7.70463","2285.03","0.0642053","117.181","231.154"
"7.72796","2286.17","0.0643997","117.24","231.854"
"7.7513","2286.69","0.0645938","117.266","232.554"
"7.77463","2287.83","0.0647882","117.325","233.254"
"7.79797","2288.56","0.064983","117.362","233.954"
"7.82125","2289.24","0.0651767","117.397","234.654"
"7.84468","2290.23","0.0653719","117.4476","235.354"
"7.86801","2290.92","0.0655664","117.483","236.054"
"7.89125","2291.49","0.0657601","117.512","236.754"
"7.91468","2292.34","0.0659553","117.556","237.454"
"7.93801","2293.33","0.0661501","117.607","238.154"
"7.96126","2293.86","0.0663434","117.634","238.854"
"7.98464","2294.67","0.0665382","117.675","239.554"
"8.00802","2295.37","0.0667331","117.711","240.254"
"8.03126","2295.88","0.0669271","117.737","240.954"
"8.05468","2296.91","0.067122","117.7904","241.654"
"8.07797","2297.57","0.067316","117.824","242.354"
"8.1013","2298.06","0.0675105","117.849","243.054"
"8.12464","2298.8","0.0677049","117.887","243.754"
"8.14797","2299.59","0.0678994","117.928","244.454"
"8.17131","2300.18","0.0680938","117.958","245.154"
"8.19464","2301.1","0.0682883","118.005","245.854"
"8.21797","2301.71","0.0684831","118.036","246.554"
"8.24126","2302.54","0.0686772","118.079","247.254"
"8.26459","2303.26","0.0688716","118.116","247.954"
"8.28802","2303.99","0.0690665","118.153","248.654"
"8.31126","2304.5","0.0692601","118.18","249.354"
"8.33464","2305.51","0.069455","118.231","250.054"
"8.35802","2306.03","0.0696498","118.258","250.754"
"8.38126","2306.66","0.0698435","118.29","251.454"
"8.40464","2307.19","0.0700383","118.317","252.154"
"8.42798","2308.17","0.0702332","118.3676","252.854"
"8.45127","2308.55","0.0704272","118.387","253.554"
"8.47465","2309.29","0.0706217","118.425","254.254"
"8.49798","2310","0.0708161","118.461","254.954"
"8.52127","2310.62","0.0710102","118.493","255.654"
"8.54465","2311.31","0.071205","118.529","256.354"
"8.56798","2311.71","0.0713995","118.549","257.054"
"8.59127","2312.45","0.0715939","118.587","257.754"
"8.6146","2313.08","0.0717883","118.62","258.454"
"8.63803","2314.06","0.0719836","118.67","259.154"
"8.66127","2314.59","0.0721772","118.697","259.854"
"8.6846","2315.01","0.0723713","118.718","260.554"
"8.70803","2315.91","0.0725665","118.765","261.254"
"8.73127","2316.31","0.0727606","118.785","261.954"
"8.7546","2316.65","0.072955","118.803","262.654"
"8.77803","2317.73","0.0731499","118.858","263.354"
"8.80127","2318.18","0.0733436","118.881","264.054"
"8.82461","2318.51","0.073538","118.898","264.754"
"8.84799","2319.39","0.0737332","118.943","265.454"
"8.87127","2320.06","0.0739269","118.978","266.154"
"8.89465","2320.62","0.0741217","119.006","266.854"
"8.91799","2321.46","0.0743162","119.049","267.554"
"8.94128","2321.59","0.0745102","119.056","268.254"
"8.96461","2322.35","0.0747047","119.095","268.954"
"8.98804","2323.06","0.0748999","119.131","269.654"
"9.01132","2323.52","0.075094","119.155","270.354"
"9.03461","2324.07","0.075288","119.183","271.054"
"9.05804","2324.89","0.0754833","119.225","271.754"
"9.08132","2325.24","0.0756773","119.243","272.454"
"9.10461","2325.62","0.0758714","119.263","273.154"
"9.12799","2326.48","0.0760666","119.307","273.854"
"9.15128","2326.69","0.0762603","119.317","274.554"
"9.17461","2327.38","0.0764551","119.353","275.254"
"9.19804","2328.23","0.0766499","119.396","275.954"
"9.22128","2328.53","0.0768436","119.412","276.654"
"9.24462","2329.03","0.0770381","119.438","277.354"
"9.268","2329.58","0.0772329","119.466","278.054"
"9.29128","2329.98","0.077427","119.486","278.754"
"9.31466","2330.65","0.0776218","119.521","279.454"
"9.338","2331.61","0.0778166","119.57","280.154"
"9.36128","2331.77","0.0780103","119.578","280.854"
"9.38462","2332.31","0.0782048","119.605","281.554"
"9.408","2332.88","0.0783996","119.635","282.254"
"9.43133","2333.35","0.078594","119.659","282.954"
"9.45462","2333.94","0.0787881","119.689","283.654"
"9.478","2334.54","0.0789829","119.72","284.354"
"9.50133","2334.93","0.0791774","119.74","285.054"
"9.52457","2335.23","0.0793715","119.755","285.754"
"9.548","2336.24","0.0795663","119.807","286.454"
"9.57129","2336.56","0.0797604","119.824","287.154"
"9.59462","2337","0.0799548","119.846","287.854"
"9.618","2337.34","0.08015","119.864","288.554"
"9.64129","2337.84","0.0803437","119.889","289.254"
"9.66462","2338.26","0.0805381","119.911","289.954"
"9.688","2339.19","0.080733","119.958","290.654"
"9.71129","2339.22","0.080927","119.96","291.354"
"9.73462","2339.78","0.0811215","119.989","292.054"
"9.75801","2340.24","0.0813163","120.012","292.754"
"9.78134","2340.72","0.0815108","120.037","293.454"
"9.80458","2341.18","0.0817048","120.06","294.154"
"9.82796","2341.71","0.0818993","120.088","294.854"
"9.85134","2341.95","0.0820941","120.1","295.554"
"9.87458","2342.68","0.0822882","120.138","296.254"
"9.89801","2343.29","0.082483","120.169","296.954"
"9.92134","2343.83","0.0826775","120.196","297.654"
"9.94458","2344.1","0.0828711","120.21","298.354"
"9.96796","2344.53","0.0830664","120.232","299.054"
"9.9913","2345.1","0.0832608","120.262","299.754"
"10.0146","2345.65","0.0834549","120.289","300.454"
"10.0381","2346.14","0.0836501","120.315","301.154"
"10.0613","2346.55","0.0838438","120.336","301.854"
"10.0846","2346.67","0.0840378","120.342","302.554"
"10.108","2347.25","0.0842331","120.372","303.254"
"10.1313","2347.63","0.0844275","120.391","303.954"
"10.1546","2348.18","0.0846216","120.42","304.654"
"10.178","2348.6","0.084816","120.441","305.354"
"10.2013","2348.99","0.0850108","120.461","306.054"
"10.2246","2349.57","0.0852049","120.491","306.754"
"10.248","2349.89","0.0853997","120.507","307.454"
"10.2713","2350.46","0.0855942","120.536","308.154"
"10.2946","2350.47","0.0857879","120.537","308.854"
"10.318","2351.13","0.0859831","120.571","309.554"
"10.3414","2351.5","0.0861775","120.589","310.254"
"10.3646","2351.7","0.0863712","120.6","310.954"
"10.388","2352.21","0.0865664","120.626","311.654"
"10.4113","2352.67","0.0867605","120.65","312.354"
"10.4346","2352.71","0.0869546","120.652","313.054"
"10.458","2353.53","0.0871502","120.694","313.754"
"10.4813","2354.08","0.0873442","120.722","314.454"
"10.5046","2353.87","0.0875379","120.711","315.154"
"10.528","2354.77","0.0877327","120.758","315.854"
"10.5513","2354.92","0.0879276","120.765","316.554"
"10.5746","2355.33","0.0881216","120.786","317.254"
"10.598","2355.62","0.0883161","120.801","317.954"
"10.6213","2356.15","0.0885105","120.828","318.654"
"10.6446","2356.51","0.088705","120.847","319.354"
"10.668","2357.15","0.0888994","120.879","320.054"
"10.6914","2357.37","0.0890943","120.891","320.754"
"10.7146","2357.38","0.0892879","120.891","321.454"
"10.738","2358.39","0.0894832","120.943","322.154"
"10.7614","2358.24","0.0896776","120.9356","322.854"
"10.7846","2358.2","0.0898713","120.933","323.554"
"10.808","2359.07","0.0900661","120.978","324.254"
"10.8314","2359.67","0.090261","121.009","324.954"
"10.8546","2359.5","0.0904546","121","325.654"
"10.878","2360.27","0.0906495","121.039","326.354"
"10.9013","2360.52","0.0908443","121.052","327.054"
"10.9246","2360.52","0.0910384","121.052","327.754"
"10.9479","2361.26","0.0912328","121.091","328.454"
"10.9713","2361.34","0.0914273","121.095","329.154"
"10.9947","2361.65","0.0916217","121.11","329.854"
"11.0179","2362.13","0.0918161","121.135","330.554"
"11.0413","2362.42","0.092011","121.15","331.254"
"11.0646","2362.73","0.0922047","121.166","331.954"
"11.0879","2363.01","0.0923995","121.18","332.654"
"11.1113","2363.49","0.0925943","121.205","333.354"
"11.1346","2363.85","0.092788","121.223","334.054"
"11.158","2364","0.0929828","121.231","334.754"
"11.1814","2364.61","0.0931777","121.262","335.454"
"11.2046","2364.6","0.0933714","121.261","336.154"
"11.2279","2365.06","0.0935658","121.285","336.854"
"11.2514","2365.54","0.093761","121.31","337.554"
"11.2746","2365.47","0.0939551","121.306","338.254"
"11.298","2366.01","0.0941495","121.334","338.954"
"11.3213","2366.15","0.094344","121.341","339.654"
"11.3446","2366.62","0.094538","121.365","340.354"
"11.3679","2366.71","0.0947329","121.37","341.054"
"11.3913","2367.06","0.0949273","121.388","341.754"
"11.4146","2367.31","0.0951214","121.401","342.454"
"11.4379","2367.66","0.0953162","121.419","343.154"
"11.4614","2368.18","0.0955111","121.445","343.854"
"11.4846","2368.28","0.0957047","121.45","344.554"
"11.5079","2368.52","0.0958992","121.463","345.254"
"11.5314","2369.09","0.0960944","121.492","345.954"
"11.5546","2368.93","0.0962881","121.484","346.654"
"11.5779","2369.42","0.0964825","121.5088","347.354"
"11.6014","2370.04","0.0966781","121.541","348.054"
"11.6246","2369.83","0.0968714","121.53","348.754"
"11.648","2370.23","0.0970659","121.55","349.454"
"11.6713","2370.58","0.0972607","121.568","350.154"
"11.6946","2370.79","0.0974548","121.5788","350.854"
"11.718","2371","0.0976496","121.59","351.554"
"11.7413","2371.61","0.0978441","121.621","352.254"
"11.7646","2371.67","0.0980381","121.624","352.954"
"11.788","2371.83","0.098233","121.632","353.654"
"11.8113","2372.55","0.0984274","121.669","354.354"
"11.8346","2372.77","0.0986219","121.681","355.054"
"11.858","2372.64","0.0988159","121.6736","355.754"
"11.8813","2373.26","0.0990111","121.706","356.454"
"11.9046","2373.31","0.0992048","121.708","357.154"
"11.928","2373.78","0.0993993","121.732","357.854"
"11.9513","2374.04","0.0995941","121.745","358.554"
"11.9746","2374.15","0.0997882","121.751","359.254"
"11.998","2374.47","0.0999826","121.767","359.954"
"12.0213","2374.81","0.100177","121.785","360.654"
"12.0446","2374.9","0.100371","121.79","361.354"
"12.068","2375.21","0.100566","121.806","362.054"
"12.0913","2375.49","0.100761","121.82","362.754"
"12.1146","2375.49","0.100955","121.82","363.454"
"12.138","2375.93","0.10115","121.843","364.154"
"12.1613","2376.4","0.101344","121.867","364.854"
"12.1846","2376.34","0.101538","121.864","365.554"
"12.208","2376.77","0.101733","121.886","366.254"
"12.2313","2377","0.101927","121.897","366.954"
"12.2546","2377.22","0.102122","121.909","367.654"
"12.2779","2377.56","0.102316","121.926","368.354"
"12.3013","2377.93","0.102511","121.945","369.054"
"12.3247","2377.99","0.102705","121.948","369.754"
"12.3479","2378.14","0.102899","121.956","370.454"
"12.3713","2378.46","0.103094","121.972","371.154"
"12.3946","2378.52","0.103289","121.975","371.854"
"12.418","2379.07","0.103483","122.004","372.554"
"12.4413","2379.41","0.103678","122.021","373.254"
"12.4646","2379.39","0.103872","122.02","373.954"
"12.488","2379.54","0.104066","122.028","374.654"
"12.5113","2379.78","0.104261","122.04","375.354"
"12.5346","2380.03","0.104455","122.053","376.054"
"12.558","2380.56","0.104649","122.08","376.754"
"12.5814","2380.42","0.104844","122.073","377.454"
"12.6046","2380.74","0.105039","122.089","378.154"
"12.6279","2380.74","0.105232","122.089","378.854"
"12.6513","2381.16","0.105428","122.111","379.554"
"12.6747","2381.54","0.105622","122.13","380.254"
"12.6979","2381.31","0.105816","122.118","380.954"
"12.7214","2381.76","0.106011","122.141","381.654"
"12.7447","2382.01","0.106205","122.155","382.354"
"12.7679","2382.14","0.106399","122.161","383.054"
"12.7913","2382.54","0.106594","122.182","383.754"
"12.8146","2382.81","0.106788","122.1956","384.454"
"12.838","2382.86","0.106983","122.198","385.154"
"12.8614","2383.45","0.107178","122.228","385.854"
"12.8846","2383.41","0.107372","122.226","386.554"
"12.9079","2383.4","0.107566","122.225","387.254"
"12.9314","2383.83","0.107761","122.248","387.954"
"12.9546","2384.13","0.107955","122.263","388.654"
"12.978","2384.03","0.108149","122.258","389.354"
"13.0013","2384.55","0.108344","122.285","390.054"
"13.0246","2384.63","0.108538","122.289","390.754"
"13.0479","2384.84","0.108732","122.299","391.454"
"13.0713","2385.2","0.108927","122.318","392.154"
"13.0946","2385.33","0.109122","122.325","392.854"
"13.1179","2385.47","0.109316","122.332","393.554"
"13.1413","2386.09","0.109511","122.363","394.254"
"13.1646","2385.87","0.109705","122.352","394.954"
"13.1879","2385.94","0.109899","122.356","395.654"
"13.2113","2386.54","0.110094","122.3866","396.354"
"13.2346","2386.42","0.110288","122.381","397.054"
"13.2579","2386.49","0.110482","122.384","397.754"
"13.2814","2387.26","0.110678","122.4238","398.454"
"13.3047","2387.05","0.110872","122.413","399.154"
"13.3279","2387.16","0.111066","122.419","399.854"
"13.3513","2387.51","0.111261","122.436","400.554"
"13.3747","2387.55","0.111455","122.439","401.254"
"13.398","2387.88","0.11165","122.455","401.954"
"13.4213","2387.99","0.111844","122.461","402.654"
"13.4447","2388.11","0.112039","122.467","403.354"
"13.4679","2388.31","0.112232","122.478","404.054"
"13.4913","2388.39","0.112427","122.481","404.754"
"13.5147","2388.72","0.112622","122.498","405.454"
"13.5379","2388.87","0.112816","122.506","406.154"
"13.5613","2388.96","0.113011","122.511","406.854"
"13.5847","2389.13","0.113205","122.52","407.554"
"13.6079","2388.94","0.113399","122.51","408.254"
"13.6313","2389.49","0.113594","122.538","408.954"
"13.6547","2389.88","0.113788","122.558","409.654"
"13.6779","2390.06","0.113982","122.567","410.354"
"13.7013","2390.2","0.114177","122.574","411.054"
"13.7247","2390.32","0.114372","122.581","411.754"
"13.7479","2390.31","0.114566","122.58","412.454"
"13.7713","2390.48","0.114761","122.588","413.154"
"13.7947","2390.85","0.114955","122.608","413.854"
"13.8179","2390.93","0.11515","122.612","414.554"
"13.8413","2391.12","0.115344","122.621","415.254"
"13.8647","2391.45","0.115539","122.638","415.954"
"13.888","2391.47","0.115733","122.64","416.654"
"13.9113","2391.47","0.115927","122.64","417.354"
"13.9347","2392.09","0.116122","122.671","418.054"
"13.9579","2392.17","0.116316","122.675","418.754"
"13.9813","2392.23","0.116511","122.678","419.454"
"14.0047","2392.86","0.116706","122.711","420.154"
"14.0279","2392.44","0.116899","122.689","420.854"
"14.0513","2392.66","0.117094","122.7","421.554"
"14.0747","2393.05","0.117289","122.72","422.254"
"14.098","2393.12","0.117483","122.724","422.954"
"14.1213","2393.23","0.117677","122.73","423.654"
"14.1447","2393.44","0.117872","122.741","424.354"
"14.1679","2393.34","0.118066","122.735","425.054"
"14.1913","2393.64","0.11826","122.751","425.754"
"14.2147","2393.99","0.118455","122.769","426.454"
"14.238","2394.41","0.118649","122.79","427.154"
"14.2613","2394.49","0.118844","122.794","427.854"
"14.2847","2394.46","0.119039","122.793","428.554"
"14.308","2394.44","0.119233","122.792","429.254"
"14.3313","2394.66","0.119427","122.803","429.954"
"14.3547","2394.82","0.119622","122.811","430.654"
"14.3779","2394.91","0.119816","122.816","431.354"
"14.4013","2395.05","0.120011","122.823","432.054"
"14.4247","2395.25","0.120206","122.833","432.754"
"14.4479","2395.03","0.120399","122.822","433.454"
"14.4713","2395.12","0.120594","122.8268","434.154"
"14.4947","2395.6","0.120789","122.851","434.854"
"14.518","2395.53","0.120983","122.848","435.554"
"14.5413","2395.77","0.121177","122.86","436.254"
"14.5646","2396.02","0.121372","122.873","436.954"
"14.588","2396.11","0.121566","122.877","437.654"
"14.6113","2396.34","0.12176","122.889","438.354"
"14.6346","2396.53","0.121955","122.899","439.054"
"14.658","2396.58","0.122149","122.901","439.754"
"14.6813","2396.96","0.122344","122.921","440.454"
"14.7046","2397.11","0.122539","122.9286","441.154"
"14.728","2397.02","0.122733","122.924","441.854"
"14.7513","2397.11","0.122927","122.929","442.554"
"14.7747","2397.5","0.123122","122.949","443.254"
"14.798","2397.66","0.123316","122.957","443.954"
"14.8213","2397.66","0.12351","122.957","444.654"
"14.8447","2398.05","0.123706","122.977","445.354"
"14.868","2397.93","0.123899","122.971","446.054"
"14.8913","2398.17","0.124094","122.983","446.754"
"14.9146","2398.26","0.124288","122.987","447.454"
"14.938","2398.42","0.124483","122.996","448.154"
"14.9613","2398.58","0.124677","123.004","448.854"
"14.9846","2398.9","0.124872","123.02","449.554"
"15.008","2398.93","0.125066","123.022","450.254"
"15.0313","2398.9","0.125261","123.02","450.954"
"15.0546","2399.11","0.125455","123.031","451.654"
"15.078","2399.32","0.125649","123.042","452.354"
"15.1013","2399.43","0.125844","123.048","453.054"
"15.1247","2399.63","0.126039","123.058","453.754"
"15.148","2399.62","0.126233","123.058","454.454"
"15.1712","2399.64","0.126427","123.058","455.154"
"15.1947","2400.14","0.126622","123.084","455.854"
"15.218","2400.2","0.126816","123.087","456.554"
"15.2413","2400.35","0.127011","123.095","457.254"
"15.2647","2400.62","0.127205","123.109","457.954"
"15.288","2400.39","0.127399","123.097","458.654"
"15.3113","2400.61","0.127594","123.108","459.354"
"15.3346","2400.76","0.127789","123.116","460.054"
"15.358","2400.9","0.127983","123.123","460.754"
"15.3813","2400.97","0.128177","123.127","461.454"
"15.4046","2401.26","0.128372","123.142","462.154"
"15.428","2401.29","0.128566","123.143","462.854"
"15.4513","2401.33","0.12876","123.145","463.554"
"15.4747","2401.61","0.128955","123.159","464.254"
"15.498","2401.68","0.129149","123.163","464.954"
"15.5213","2401.83","0.129344","123.171","465.654"
"15.5447","2401.97","0.129539","123.178","466.354"
"15.568","2402.12","0.129733","123.185","467.054"
"15.5913","2402.29","0.129927","123.194","467.754"
"15.6147","2402.53","0.130122","123.207","468.454"
"15.638","2402.25","0.130316","123.192","469.154"
"15.6613","2402.48","0.13051","123.204","469.854"
"15.6847","2403.02","0.130705","123.232","470.554"
"15.7079","2402.91","0.130899","123.226","471.254"
"15.7313","2403.04","0.131094","123.233","471.954"
"15.7547","2403.44","0.131288","123.253","472.654"
"15.7779","2403.43","0.131483","123.253","473.354"
"15.8013","2403.33","0.131677","123.248","474.054"
"15.8247","2403.91","0.131872","123.278","474.754"
"15.8479","2403.78","0.132066","123.271","475.454"
"15.8713","2403.78","0.13226","123.271","476.154"
"15.8947","2404.1","0.132455","123.287","476.854"
"15.918","2404.36","0.13265","123.301","477.554"
"15.9413","2404.3","0.132844","123.2972","478.254"
"15.9647","2404.5","0.133038","123.308","478.954"
"15.988","2404.59","0.133233","123.312","479.654"
"16.0113","2404.74","0.133427","123.32","480.354"
"16.0347","2404.8","0.133622","123.323","481.054"
"16.0579","2404.91","0.133816","123.329","481.754"
"16.0813","2405.03","0.134011","123.335","482.454"
"16.1047","2405.54","0.134205","123.361","483.154"
"16.128","2405.31","0.1344","123.349","483.854"
"16.1513","2405.35","0.134594","123.351","484.554"
"16.1747","2405.86","0.134788","123.377","485.254"
"16.198","2405.89","0.134983","123.379","485.954"
"16.2213","2405.88","0.135177","123.379","486.654"
"16.2447","2406.13","0.135372","123.391","487.354"
"16.268","2406.16","0.135567","123.393","488.054"
"16.2912","2406.07","0.13576","123.388","488.754"
"16.3146","2406.05","0.135955","123.387","489.454"
"16.338","2406.41","0.13615","123.405","490.154"
"16.3613","2406.75","0.136344","123.423","490.854"
"16.3846","2406.66","0.136539","123.418","491.554"
"16.408","2406.77","0.136733","123.424","492.254"
"16.4312","2406.82","0.136927","123.427","492.954"
"16.4546","2407.22","0.137122","123.447","493.654"
"16.478","2407.29","0.137316","123.451","494.354"
"16.5013","2407.32","0.13751","123.452","495.054"
"16.5247","2407.59","0.137705","123.466","495.754"
"16.548","2407.31","0.1379","123.452","496.454"
"16.5712","2407.62","0.138093","123.467","497.154"
"16.5946","2407.84","0.138289","123.479","497.854"
"16.618","2408.12","0.138483","123.493","498.554"
"16.6413","2408.09","0.138677","123.492","499.254"
"16.6646","2407.85","0.138872","123.48","499.954"
"16.688","2408.3","0.139067","123.502","500.654"
"16.7113","2408.33","0.13926","123.504","501.354"
"16.7346","2408.38","0.139455","123.507","502.054"
"16.758","2408.61","0.13965","123.519","502.754"
"16.7813","2408.44","0.139844","123.51","503.454"
"16.8047","2408.56","0.140039","123.516","504.154"
"16.828","2408.68","0.140233","123.522","504.854"
"16.8513","2408.71","0.140427","123.524","505.554"
"16.8746","2408.94","0.140622","123.536","506.254"
"16.898","2409.08","0.140816","123.542","506.954"
"16.9213","2409.03","0.14101","123.54","507.654"
"16.9447","2409.42","0.141205","123.56","508.354"
"16.968","2409.48","0.1414","123.563","509.054"
"16.9913","2409.27","0.141593","123.552","509.754"
"17.0146","2409.44","0.141788","123.561","510.454"
"17.038","2409.67","0.141983","123.573","511.154"
"17.0613","2409.57","0.142177","123.568","511.854"
"17.0846","2409.72","0.142372","123.575","512.554"
"17.108","2410.05","0.142566","123.592","513.254"
"17.1313","2409.78","0.14276","123.579","513.954"
"17.1546","2410","0.142955","123.59","514.654"
"17.178","2410.4","0.14315","123.61","515.354"
"17.2013","2410.02","0.143343","123.591","516.054"
"17.2246","2410.14","0.143539","123.597","516.754"
"17.248","2410.5","0.143733","123.615","517.454"
"17.2713","2410.13","0.143927","123.596","518.154"
"17.2946","2410.54","0.144122","123.617","518.854"
"17.318","2410.96","0.144316","123.639","519.554"
"17.3413","2410.7","0.144511","123.626","520.254"
"17.3646","2411.12","0.144705","123.647","520.954"
"17.388","2410.99","0.1449","123.64","521.654"
"17.4113","2410.84","0.145094","123.633","522.354"
"17.4346","2411.02","0.145288","123.642","523.054"
"17.458","2410.97","0.145483","123.639","523.754"
"17.4813","2411.31","0.145678","123.657","524.454"
"17.5046","2411.23","0.145871","123.653","525.154"
"17.528","2411.48","0.146067","123.666","525.854"
"17.5513","2411.42","0.146261","123.663","526.554"
"17.5746","2411.54","0.146455","123.669","527.254"
"17.598","2411.88","0.14665","123.686","527.954"
"17.6213","2411.75","0.146844","123.679","528.654"
"17.6446","2411.9","0.147038","123.687","529.354"
"17.668","2412.1","0.147234","123.698","530.054"
"17.6913","2411.92","0.147427","123.688","530.754"
"17.7146","2412.02","0.147621","123.693","531.454"
"17.738","2412.38","0.147817","123.712","532.154"
"17.7613","2412.23","0.148011","123.704","532.854"
"17.7847","2412.24","0.148205","123.705","533.554"
"17.808","2412.14","0.148399","123.699","534.254"
"17.8313","2412.38","0.148594","123.712","534.954"
"17.8546","2412.47","0.148788","123.716","535.654"
"17.878","2412.63","0.148983","123.725","536.354"
"17.9013","2412.6","0.149177","123.723","537.054"
"17.9246","2412.65","0.149371","123.726","537.754"
"17.948","2412.93","0.149567","123.74","538.454"
"17.9713","2412.91","0.149761","123.739","539.154"
"17.9946","2413.01","0.149955","123.744","539.854"
"18.018","2413.09","0.15015","123.748","540.554"
"18.0413","2412.87","0.150344","123.737","541.254"
"18.0646","2413.08","0.150538","123.748","541.954"
"18.088","2413.4","0.150733","123.764","542.654"
"18.1113","2413.41","0.150927","123.765","543.354"
"18.1346","2413.47","0.151121","123.768","544.054"
"18.158","2413.76","0.151316","123.782","544.754"
"18.1813","2413.71","0.151511","123.78","545.454"
"18.2047","2413.89","0.151705","123.789","546.154"
"18.228","2413.74","0.1519","123.782","546.854"
"18.2513","2413.85","0.152094","123.787","547.554"
"18.2746","2414.15","0.152288","123.803","548.254"
"18.298","2414.14","0.152483","123.802","548.954"
"18.3213","2414.25","0.152677","123.808","549.654"
"18.3446","2414.09","0.152871","123.799","550.354"
"18.368","2414.47","0.153067","123.819","551.054"
"18.3913","2414.44","0.153261","123.818","551.754"
"18.4146","2414.4","0.153455","123.8154","552.454"
"18.438","2414.8","0.15365","123.836","553.154"
"18.4613","2414.75","0.153844","123.833","553.854"
"18.4846","2414.75","0.154038","123.833","554.554"
"18.508","2414.98","0.154233","123.845","555.254"
"18.5313","2415.06","0.154427","123.849","555.954"
"18.5546","2414.86","0.154621","123.839","556.654"
"18.578","2415.07","0.154816","123.85","557.354"
"18.6013","2415.18","0.15501","123.855","558.054"
"18.6247","2415.27","0.155205","123.86","558.754"
"18.648","2415.35","0.1554","123.864","559.454"
"18.6713","2415.45","0.155594","123.869","560.154"
"18.6946","2415.52","0.155788","123.873","560.854"
"18.718","2415.43","0.155983","123.8682","561.554"
"18.7413","2415.71","0.156177","123.882","562.254"
"18.7646","2415.67","0.156371","123.88","562.954"
"18.788","2415.69","0.156566","123.881","563.654"
"18.8113","2415.98","0.156761","123.896","564.354"
"18.8346","2415.82","0.156954","123.888","565.054"
"18.858","2415.79","0.15715","123.8866","565.754"
"18.8813","2416.06","0.157344","123.901","566.454"
"18.9046","2415.94","0.157538","123.894","567.154"
"18.928","2416.05","0.157733","123.9","567.854"
"18.9513","2415.92","0.157927","123.894","568.554"
"18.9746","2415.46","0.158122","123.87","569.254"
"18.998","2415.84","0.158316","123.889","569.954"
"19.0213","2415.87","0.158511","123.891","570.654"
"19.0446","2415.55","0.158705","123.874","571.354"
"19.068","2415.73","0.1589","123.884","572.054"
"19.0913","2416","0.159094","123.897","572.754"
"19.1146","2415.82","0.159288","123.888","573.454"
"19.138","2415.8","0.159483","123.887","574.154"
"19.1613","2415.93","0.159678","123.894","574.854"
"19.1846","2415.67","0.159871","123.881","575.554"
"19.208","2415.8","0.160066","123.887","576.254"
"19.2313","2414.19","0.160261","123.804","576.954"
"19.2546","2413.75","0.160455","123.782","577.654"
"19.278","2414.16","0.160649","123.803","578.354"
"19.3013","2414.75","0.160844","123.833","579.054"
"19.3246","2414.32","0.161038","123.811","579.754"
"19.348","2414.91","0.161233","123.842","580.454"
"19.3713","2414.5","0.161427","123.821","581.154"
"19.3946","2412.57","0.161621","123.721","581.854"
"19.418","2413.09","0.161816","123.748","582.554"
"19.4413","2412.85","0.162011","123.736","583.254"
"19.4646","2412.91","0.162205","123.739","583.954"
"19.488","2412.79","0.162399","123.733","584.654"
"19.5114","2412.69","0.162594","123.728","585.354"
"19.5346","2410.47","0.162788","123.614","586.054"
"19.558","2410.07","0.162983","123.594","586.754"
"19.5814","2409.89","0.163178","123.584","587.454"
"19.6046","2408.88","0.163371","123.532","588.154"
"19.628","2407.87","0.163566","123.48","588.854"
"19.6514","2398.82","0.163761","123.0162","589.554"
"19.6746","2395.31","0.163955","122.837","590.254"
"19.698","2385.79","0.164149","122.348","590.954"
"19.7213","2374.18","0.164344","121.753","591.654"
"19.7446","1928.99","0.164538","98.9224","592.354"
"19.768","1888.3","0.164733","96.8361","593.054"
"19.7913","1858.89","0.164927","95.3279","593.754"
"19.8146","1808.37","0.165121","92.73708","594.454"
"19.8279","123.694","0.165233","6.34329","594.846"