File: experimental_data/tensile_specimen_test_data/tensile_test_data/20250312/original_data/SSS 14 03-12-25 16 18 12 下午/数采：横梁, … - (实时值).csv
"文件路径: C:\Users\Lenovo\Desktop\Wayne\20250312\原始数据\SSS 14 03-12-25 16 18 12 下午\数采：横梁, … - (实时值).csv   "
"试验: 拉伸试验（UNIVER）      视频引伸计采集变形-W 1"
"试验运行: SSS 14"
"日期: 2025/3/12 15:21:55"
""
""
"横梁 ","力 ","视频引伸计变形 ","应变 ","时间 "
"mm","N","mm","mm/mm","sec"
"0.00251502","-168.941","-0.0005","-1e-05","0.1"
"0.0299008","-6.68224","0.0463","0.000926","0.9"
"0.0566346","153.051","0.08","0.0016","1.7"
"0.0832752","310.404","0.1059","0.002118","2.5"
"0.109962","463.819","0.1282","0.002564","3.3"
"0.136603","611.809","0.148","0.00296","4.1"
"0.163244","752.654","0.1658","0.003316","4.9"
"0.189977","887.781","0.1837","0.003674","5.7"
"0.216618","1016.38","0.199","0.00398","6.5"
"0.243259","1137.23","0.212","0.00424","7.3"
"0.269899","1249.58","0.2235","0.00447","8.1"
"0.296586","1353.1","0.2359","0.004718","8.9"
"0.32332","1446.19","0.2526","0.005052","9.7"
"0.350007","1525.33","0.2607","0.005214","10.5"
"0.376601","1587.43","0.2673","0.005346","11.3"
"0.403242","1637.47","0.2751","0.005502","12.1"
"0.429882","1677.68","0.282","0.00564","12.9"
"0.456616","1718.14","0.2895","0.00579","13.7"
"0.48335","1759.05","0.2944","0.005888","14.5"
"0.509944","1799.3","0.2997","0.005994","15.3"
"0.536585","1839.68","0.3049","0.006098","16.1"
"0.563225","1880.41","0.3114","0.006228","16.9"
"0.589959","1920.62","0.3191","0.006382","17.7"
"0.6166","1960.04","0.3266","0.006532","18.5"
"0.643287","1999.18","0.3322","0.006644","19.3"
"0.669974","2038.41","0.3392","0.006784","20.1"
"0.696568","2076.88","0.3443","0.006886","20.9"
"0.723255","2114.89","0.3515","0.00703","21.7"
"0.749989","2153.15","0.3599","0.007198","22.5"
"0.776629","2191.62","0.3669","0.007338","23.3"
"0.80327","2228.71","0.3736","0.007472","24.1"
"0.829911","2265.77","0.3796","0.007592","24.9"
"0.856598","2302.63","0.3867","0.007734","25.7"
"0.883285","2338.7","0.3943","0.007886","26.5"
"0.909972","2374.97","0.4017","0.008034","27.3"
"0.936613","2409.64","0.4098","0.008196","28.1"
"0.963253","2444.35","0.417","0.00834","28.9"
"0.989941","2479.2","0.4254","0.008508","29.7"
"1.01667","2514.3","0.4351","0.008702","30.5"
"1.04327","2548.07","0.4432","0.008864","31.3"
"1.06991","2581.5","0.4515","0.00903","32.1"
"1.09655","2613.7","0.4602","0.009204","32.9"
"1.12324","2646.25","0.4678","0.009356","33.7"
"1.14997","2678.41","0.4768","0.009536","34.5"
"1.17666","2709.84","0.4869","0.009738","35.3"
"1.2033","2739.7","0.4962","0.009924","36.1"
"1.22994","2769.36","0.5049","0.010098","36.9"
"1.25658","2798.98","0.5137","0.010274","37.7"
"1.28327","2827.93","0.5235","0.01047","38.5"
"1.30995","2855.99","0.5342","0.010684","39.3"
"1.33659","2883.54","0.5452","0.010904","40.1"
"1.36324","2910.45","0.555","0.0111","40.9"
"1.38992","2936.28","0.5655","0.01131","41.7"
"1.41656","2960.44","0.5759","0.011518","42.5"
"1.4433","2985.61","0.5872","0.011744","43.3"
"1.47003","3010.5","0.5996","0.011992","44.1"
"1.49662","3033.94","0.6114","0.012228","44.9"
"1.52326","3056.32","0.6221","0.012442","45.7"
"1.54995","3078.41","0.6342","0.012684","46.5"
"1.57664","3100.47","0.6462","0.012924","47.3"
"1.60328","3121.26","0.6594","0.013188","48.1"
"1.62992","3141.36","0.6713","0.013426","48.9"
"1.65661","3160.78","0.684","0.01368","49.7"
"1.68329","3180.31","0.6959","0.013918","50.5"
"1.70998","3199.37","0.7087","0.014174","51.3"
"1.73667","3217.44","0.7217","0.014434","52.1"
"1.76326","3234.47","0.7385","0.01477","52.9"
"1.7899","3251.54","0.7521","0.015042","53.7"
"1.81664","3268.35","0.7659","0.015318","54.5"
"1.84332","3284.62","0.7782","0.015564","55.3"
"1.86997","3299.92","0.7925","0.01585","56.1"
"1.89661","3315.04","0.8104","0.016208","56.9"
"1.92325","3330.03","0.8234","0.016468","57.7"
"1.94989","3344.6","0.8374","0.016748","58.5"
"1.97662","3359.11","0.8524","0.017048","59.3"
"2.00335","3345.17","0.871","0.01742","60.1"
"2.02995","3371.43","0.8854","0.017708","60.9"
"2.05659","3389.28","0.8988","0.017976","61.7"
"2.08328","3403.88","0.9144","0.018288","62.5"
"2.10992","3417.11","0.9295","0.01859","63.3"
"2.13665","3430.17","0.9454","0.018908","64.1"
"2.16334","3442.47","0.9626","0.019252","64.9"
"2.18993","3454.25","0.9783","0.019566","65.7"
"2.21653","3465.66","0.9931","0.019862","66.5"
"2.24326","3440.95","1.01","0.0202","67.3"
"2.26999","3469.67","1.0469","0.020938","68.1"
"2.29663","3487.92","1.0612","0.021224","68.9"
"2.32327","3500.69","1.0798","0.021596","69.7"
"2.34996","3512.07","1.0944","0.021888","70.5"
"2.3766","3523.12","1.1103","0.022206","71.3"
"2.40329","3533.41","1.126","0.02252","72.1"
"2.42998","3543.43","1.1432","0.022864","72.9"
"2.45662","3553.08","1.1625","0.02325","73.7"
"2.48321","3562.41","1.1789","0.023578","74.5"
"2.50995","3572.34","1.1952","0.023904","75.3"
"2.53663","3582","1.2117","0.024234","76.1"
"2.56327","3590.58","1.2294","0.024588","76.9"
"2.58996","3599.48","1.2491","0.02492","77.7"
"2.6166","3608.38","1.2654","0.025308","78.5"
"2.64329","3617.09","1.2822","0.025644","79.3"
"2.66998","3625.46","1.2989","0.025978","80.1"
"2.69666","3634.01","1.3166","0.026332","80.9"
"2.72326","3642.72","1.3362","0.026674","81.7"
"2.74985","3650.34","1.3527","0.027054","82.5"
"2.77658","3658.16","1.3707","0.027414","83.3"
"2.80332","3666.56","1.3879","0.027758","84.1"
"2.83001","3674.79","1.4044","0.028088","84.9"
"2.85665","3682.29","1.4215","0.02843","85.7"
"2.88329","3687.54","1.4389","0.028778","86.5"
"2.90993","3695.79","1.4554","0.029108","87.3"
"2.93661","3703.89","1.473","0.02946","88.1"
"2.9633","3711.74","1.4896","0.029792","88.9"
"2.98994","3719.46","1.5067","0.030134","89.7"
"3.01654","3725.84","1.5269","0.030538","90.5"
"3.04322","3733.02","1.5429","0.030858","91.3"
"3.06996","3740.65","1.5616","0.031232","92.1"
"3.0966","3747.68","1.5792","0.031584","92.9"
"3.12333","3754.64","1.5958","0.031916","93.7"
"3.14997","3761.8","1.6135","0.03227","94.5"
"3.17657","3768.47","1.6341","0.032682","95.3"
"3.20325","3775.36","1.6507","0.033014","96.1"
"3.22999","3781.99","1.668","0.03336","96.9"
"3.25663","3788.83","1.6853","0.033706","97.7"
"3.28327","3794.88","1.7024","0.034048","98.5"
"3.30991","3801.51","1.7235","0.03447","99.3"
"3.33664","3808.21","1.7413","0.034826","100.1"
"3.36328","3814.57","1.7597","0.035194","100.9"
"3.38997","3820.92","1.777","0.03554","101.7"
"3.41661","3827.48","1.7938","0.035876","102.5"
"3.4432","3833.39","1.8141","0.036218","103.3"
"3.46994","3839.18","1.8311","0.036622","104.1"
"3.49667","3845.94","1.8487","0.036974","104.9"
"3.52331","3852.24","1.8656","0.037312","105.7"
"3.54991","3858.26","1.8837","0.037674","106.5"
"3.57655","3863.67","1.9017","0.038034","107.3"
"3.60328","3869.85","1.9216","0.038432","108.1"
"3.62997","3876.33","1.9399","0.038798","108.9"
"3.65666","3882.65","1.9566","0.039132","109.7"
"3.6833","3888.29","1.974","0.03948","110.5"
"3.70989","3893.63","1.9916","0.039832","111.3"
"3.73658","3899.72","2.3327","0.046654","112.1"
"3.76331","3905.4","2.3482","0.046964","112.9"
"3.79","3911.17","2.37","0.0474","113.7"
"3.81664","3916.64","2.3891","0.047782","114.5"
"3.84323","3922.27","2.4064","0.048128","115.3"
"3.86992","3928.09","2.4254","0.048508","116.1"
"3.89656","3933.66","2.4467","0.048934","116.9"
"3.92329","3939.25","2.4654","0.049308","117.7"
"3.94998","3945.36","2.4847","0.049694","118.5"
"3.97658","3950.4","2.503","0.05006","119.3"
"4.00326","3955.2","2.5224","0.050448","120.1"
"4.02995","3961.14","2.5457","0.050914","120.9"
"4.05664","3966.72","2.5615","0.05123","121.7"
"4.08328","3972.21","2.5819","0.051638","122.5"
"4.10992","3977.34","2.6024","0.052048","123.3"
"4.13661","3982.65","2.6202","0.052404","124.1"
"4.16325","3987.84","2.6384","0.052768","124.9"
"4.18998","3993.31","2.6599","0.053198","125.7"
"4.21667","3977.21","2.6616","0.053232","126.5"
"4.24326","3990.87","2.6714","0.053428","127.3"
"4.2699","3999.9","2.6929","0.053858","128.1"
"4.29664","4007.47","2.706","0.05412","128.9"
"4.32332","4013.36","2.7247","0.054494","129.7"
"4.34996","4019.13","2.7419","0.054838","130.5"
"4.3766","4024.14","2.7617","0.055234","131.3"
"4.40324","4029.2","2.7805","0.05561","132.1"
"4.42989","4034.32","2.7981","0.055962","132.9"
"4.45662","4039.81","2.8191","0.056382","133.7"
"4.48335","4044.99","2.8417","0.056834","134.5"
"4.50995","4049.39","2.8562","0.057124","135.3"
"4.53659","4054.06","2.8753","0.057506","136.1"
"4.56327","4059.19","2.8928","0.057856","136.9"
"4.58991","4064.16","2.9159","0.058318","137.7"
"4.61665","4068.82","2.9302","0.058604","138.5"
"4.64329","4073.86","2.9519","0.059038","139.3"
"4.66993","4078.36","2.9712","0.059424","140.1"
"4.69652","4082.73","2.9867","0.059734","140.9"
"4.72326","4087.49","3.0046","0.060092","141.7"
"4.74999","4092.77","3.0289","0.060578","142.5"
"4.77663","4097.48","3.0484","0.060968","143.3"
"4.80327","4101.81","3.0673","0.061346","144.1"
"4.82996","4106.33","3.0829","0.061658","144.9"
"4.8566","4111.27","3.1038","0.062076","145.7"
"4.88329","4116.07","3.1254","0.062508","146.5"
"4.90993","4120.25","3.1444","0.062888","147.3"
"4.93657","4124.2","3.1585","0.06317","148.1"
"4.96326","4114.31","3.1747","0.063494","148.9"
"4.98994","4124.18","3.1822","0.063644","149.7"
"5.01668","4132.22","3.2032","0.064004","150.5"
"5.04332","4138.02","3.2206","0.064412","151.3"
"5.06996","4142.84","3.2397","0.064794","152.1"
"5.0966","4147.54","3.2553","0.065106","152.9"
"5.12329","4152.1","3.2791","0.065582","153.7"
"5.14997","4156.71","3.2976","0.065914","154.5"
"5.17661","4160.86","3.3123","0.066246","155.3"
"5.20325","4165.08","3.3319","0.066638","156.1"
"5.2299","4169.11","3.3501","0.067002","156.9"
"5.25658","4173.48","3.3678","0.067356","157.7"
"5.28332","4178.2","3.3889","0.067778","158.5"
"5.31","4182.41","3.4095","0.06819","159.3"
"5.3366","4186.6","3.4237","0.068474","160.1"
"5.36328","4190.48","3.4437","0.068874","160.9"
"5.38988","4194","3.4613","0.069226","161.7"
"5.41661","4116.54","3.4538","0.069076","162.5"
"5.44335","4152.79","3.4718","0.069436","163.3"
"5.46999","4175.75","3.4767","0.069534","164.1"
"5.49658","4187.87","3.4933","0.069866","164.9"
"5.52322","4196.08","3.5046","0.070092","165.7"
"5.54995","4202.58","3.5213","0.070426","166.5"
"5.57664","4207.95","3.5419","0.070838","167.3"
"5.60328","4212.73","3.5588","0.071176","168.1"
"5.62997","4216.72","3.5781","0.071562","168.9"
"5.65656","4220.56","3.594","0.07188","169.7"
"5.6833","4224.91","3.6135","0.07227","170.5"
"5.70998","4228.87","3.6338","0.072676","171.3"
"5.73663","4232.71","3.6526","0.073052","172.1"
"5.76327","4236.49","3.6736","0.073472","172.9"
"5.78991","4240.2","3.6915","0.07383","173.7"
"5.81659","4244.54","3.7096","0.074192","174.5"
"5.84328","4248.11","3.7301","0.07457","175.3"
"5.86997","4251.76","3.7504","0.075008","176.1"
"5.89661","4255.63","3.7691","0.075382","176.9"
"5.92325","4258.78","3.7891","0.075782","177.7"
"5.94994","4262.67","3.809","0.07618","178.5"
"5.97667","4266.4","3.8254","0.076508","179.3"
"6.00331","4270.35","3.848","0.076922","180.1"
"6.0299","4273.69","3.8685","0.07737","180.9"
"6.05655","4276.75","3.8861","0.077722","181.7"
"6.08323","4280.25","3.9064","0.078128","182.5"
"6.10997","4284.21","3.9285","0.07857","183.3"
"6.1367","4287.79","3.9466","0.078932","184.1"
"6.16329","4291.02","3.9698","0.079396","184.9"
"6.18989","4294.15","3.9852","0.079704","185.7"
"6.21658","4297.68","4.0071","0.080142","186.5"
"6.24331","4301.24","4.0226","0.080452","187.3"
"6.27","4304.55","4.0448","0.080896","188.1"
"6.29659","4307.86","4.0657","0.081314","188.9"
"6.32323","4310.56","4.0838","0.081676","189.7"
"6.34992","4314.18","4.1021","0.082042","190.5"
"6.37661","4317.64","4.1231","0.082462","191.3"
"6.40329","4319.96","4.1404","0.082808","192.1"
"6.42998","4323.33","4.1598","0.08321","192.9"
"6.45662","4326.74","4.1831","0.083662","193.7"
"6.48326","4330.16","4.2007","0.084014","194.5"
"6.50995","4333.3","4.2167","0.084334","195.3"
"6.53659","4336.68","4.2383","0.084766","196.1"
"6.56328","4339.75","4.2551","0.085102","196.9"
"6.58992","4342.79","4.278","0.08556","197.7"
"6.6166","4345.77","4.2941","0.085882","198.5"
"6.64324","4348.64","4.3143","0.086286","199.3"
"6.66998","4351.93","4.3357","0.086714","200.1"
"6.69667","4355.55","4.353","0.08706","200.9"
"6.72326","4358.42","4.3775","0.08755","201.7"
"6.7499","4360.87","4.3951","0.087902","202.5"
"6.77663","4363.84","4.4135","0.08827","203.3"
"6.80332","4367.25","4.432","0.08864","204.1"
"6.82996","4370.29","4.452","0.08904","204.9"
"6.8566","4372.56","4.4731","0.089462","205.7"
"6.88324","4375.18","4.4878","0.089756","206.5"
"6.90993","4378.26","4.5114","0.090228","207.3"
"6.93666","4381.71","4.5291","0.090582","208.1"
"6.96335","4384.74","4.5477","0.090954","208.9"
"6.98994","4386.92","4.5684","0.091368","209.7"
"7.01659","4389.91","4.5867","0.091734","210.5"
"7.04327","4392.55","4.6066","0.092132","211.3"
"7.06991","4395.09","4.6262","0.092524","212.1"
"7.09665","4398.13","4.6454","0.092908","212.9"
"7.12333","4400.93","4.6636","0.093272","213.7"
"7.14993","4403.23","4.6825","0.09365","214.5"
"7.17657","4406.1","4.7032","0.094064","215.3"
"7.20326","4408.92","4.7208","0.094416","216.1"
"7.22999","4411.77","4.7409","0.094818","216.9"
"7.25663","4414.28","4.759","0.09518","217.7"
"7.28327","4416.74","4.7799","0.095598","218.5"
"7.30991","4419.44","4.7986","0.095972","219.3"
"7.3366","4421.61","4.8152","0.096304","220.1"
"7.36329","4424.54","4.8361","0.096722","220.9"
"7.38997","4427.01","4.8553","0.097106","221.7"
"7.41661","4429.65","4.8732","0.097464","222.5"
"7.44321","4431.84","4.8947","0.097894","223.3"
"7.46994","4434.49","4.9148","0.098296","224.1"
"7.49668","4437.29","4.9349","0.098698","224.9"
"7.52327","4439.85","4.9516","0.099032","225.7"
"7.54991","4441.93","4.9708","0.099416","226.5"
"7.5766","4444.05","4.9898","0.099796","227.3"
"7.60328","4446.71","5.01","0.1002","228.1"
"7.62997","4449.49","5.0293","0.100586","228.9"
"7.65666","4451.68","5.0446","0.100892","229.7"
"7.68325","4453.92","5.0651","0.101302","230.5"
"7.70989","4456.16","5.0845","0.10169","231.3"
"7.73658","4458.28","5.1049","0.102098","232.1"
"7.76331","4461.22","5.125","0.1025","232.9"
"7.79","4463.42","5.1425","0.10285","233.7"
"7.81664","4465.81","5.1621","0.103242","234.5"
"7.84328","4468.1","5.1776","0.103552","235.3"
"7.86992","4470.19","5.1991","0.103982","236.1"
"7.89661","4472.36","5.2204","0.104408","236.9"
"7.92334","4475.18","5.2392","0.104784","237.7"
"7.94998","4477.85","5.2594","0.105188","238.5"
"7.97658","4479.21","5.2744","0.105488","239.3"
"8.00322","4481.26","5.2961","0.105922","240.1"
"8.02995","4483.79","5.3179","0.106358","240.9"
"8.05664","4486.32","5.3347","0.106694","241.7"
"8.08333","4488.45","5.3574","0.107148","242.5"
"8.10997","4490.81","5.3787","0.107574","243.3"
"8.13656","4492.73","5.3956","0.107912","244.1"
"8.16325","4494.9","5.415","0.1083","244.9"
"8.18998","4497.17","5.4355","0.10871","245.7"
"8.21662","4499.15","5.4556","0.109112","246.5"
"8.24322","4500.85","5.4747","0.109494","247.3"
"8.2699","4502.86","5.4976","0.109952","248.1"
"8.29664","4505.59","5.5149","0.110298","248.9"
"8.32328","4507.72","5.5349","0.110698","249.7"
"8.34997","4509.72","5.556","0.11112","250.5"
"8.37661","4511.45","5.5788","0.111576","251.3"
"8.40325","4513.38","5.5978","0.111956","252.1"
"8.42993","4515.46","5.6218","0.112436","252.9"
"8.45667","4517.71","5.6416","0.112832","253.7"
"8.48331","4519.67","5.6629","0.113258","254.5"
"8.5099","4521.65","5.6872","0.113744","255.3"
"8.53659","4523.54","5.7034","0.114068","256.1"
"8.56328","4525.65","5.7274","0.114548","256.9"
"8.58996","4527.94","5.746","0.11492","257.7"
"8.61665","4529.97","5.7673","0.115346","258.5"
"8.64329","4532.04","5.7872","0.115744","259.3"
"8.66989","4533.41","5.8115","0.11623","260.1"
"8.69657","4535.17","5.8322","0.116562","260.9"
"8.72331","4537.27","5.8495","0.11699","261.7"
"8.74999","4539.67","5.8721","0.117442","262.5"
"8.77663","4541.43","5.8919","0.117838","263.3"
"8.80323","4542.8","5.9122","0.118244","264.1"
"8.82992","4544.82","5.9347","0.118694","264.9"
"8.8566","4546.96","5.9569","0.119138","265.7"
"8.88329","4548.91","5.9778","0.119556","266.5"
"8.90998","4550.75","5.9962","0.119924","267.3"
"8.93662","4552.49","6.0182","0.120364","268.1"
"8.96326","4553.95","6.0392","0.120784","268.9"
"8.98995","4556.03","6.0594","0.121188","269.7"
"9.01663","4557.84","6.0788","0.121576","270.5"
"9.04327","4559.55","6.0986","0.121972","271.3"
"9.06991","4561.3","6.1204","0.122408","272.1"
"9.0966","4563.07","6.1409","0.122818","272.9"
"9.12324","4564.81","6.1587","0.123174","273.7"
"9.14993","4566.88","6.1831","0.123662","274.5"
"9.17666","4568.93","6.2029","0.124058","275.3"
"9.20326","4570.45","6.2214","0.124428","276.1"
"9.2299","4571.74","6.2402","0.124804","276.9"
"9.25663","4573.76","6.26","0.1252","277.7"
"9.28332","4575.65","6.283","0.12566","278.5"
"9.30996","4577.38","6.3032","0.126064","279.3"
"9.3366","4579.12","6.3235","0.12647","280.1"
"9.36324","4580.53","6.3454","0.126908","280.9"
"9.38988","4582.29","6.3636","0.127272","281.7"
"9.41666","4584.33","6.388","0.12776","282.5"
"9.44335","4586.57","6.4058","0.128116","283.3"
"9.46994","4587.61","6.4277","0.128554","284.1"
"9.49658","4588.86","6.4469","0.128938","284.9"
"9.52327","4590.97","6.4676","0.129352","285.7"
"9.54996","4592.82","6.4918","0.129836","286.5"
"9.57664","4594.53","6.5089","0.130178","287.3"
"9.60329","4596.1","6.5324","0.130648","288.1"
"9.62993","4597.53","6.5505","0.13101","288.9"
"9.65657","4598.89","6.5703","0.131406","289.7"
"9.68325","4600.81","6.591","0.13182","290.5"
"9.70999","4602.43","6.6136","0.132272","291.3"
"9.73667","4604.31","6.6347","0.132694","292.1"
"9.76332","4605.58","6.6517","0.133034","292.9"
"9.78996","4607.06","6.6707","0.133414","293.7"
"9.8166","4608.32","6.6905","0.13381","294.5"
"9.84328","4610.29","6.713","0.13426","295.3"
"9.86997","4611.64","6.7349","0.134698","296.1"
"9.89656","4613.19","6.7531","0.135062","296.9"
"9.92325","4614.59","6.7726","0.135452","297.7"
"9.94994","4616.13","6.7907","0.135814","298.5"
"9.97667","4618.18","6.8165","0.136302","299.3"
"10.0033","4619.73","6.8368","0.136736","300.1"
"10.03","4620.93","6.857","0.13714","300.9"
"10.0566","4622.42","6.8755","0.13751","301.7"
"10.0833","4623.92","6.893","0.13786","302.5"
"10.11","4626.05","6.9139","0.138278","303.3"
"10.1366","4627.29","6.9375","0.13875","304.1"
"10.1633","4628.24","6.9595","0.13919","304.9"
"10.1899","4629.47","6.977","0.13954","305.7"
"10.2166","4631.21","6.9968","0.139936","306.5"
"10.2433","4633.44","7.0146","0.140292","307.3"
"10.27","4634.84","7.0396","0.140792","308.1"
"10.2966","4636.21","7.061","0.14122","308.9"
"10.3233","4637.26","7.0821","0.141642","309.7"
"10.3499","4638.81","7.1009","0.142018","310.5"
"10.3766","4640.12","7.1178","0.142356","311.3"
"10.4033","4641.64","7.1359","0.142718","312.1"
"10.43","4643.04","7.1622","0.143244","312.9"
"10.4566","4644.34","7.1827","0.143654","313.7"
"10.4832","4645.58","7.2029","0.144058","314.5"
"10.51","4647.3","7.2226","0.144452","315.3"
"10.5366","4648.88","7.2432","0.144864","316.1"
"10.5633","4650.24","7.2625","0.14525","316.9"
"10.59","4651.41","7.2854","0.145708","317.7"
"10.6166","4652.47","7.3078","0.146156","318.5"
"10.6433","4653.73","7.3261","0.146522","319.3"
"10.67","4655.79","7.346","0.14692","320.1"
"10.6966","4657.63","7.3701","0.147402","320.9"
"10.7233","4658.31","7.3894","0.147788","321.7"
"10.7499","4659.45","7.4112","0.148224","322.5"
"10.7766","4661.28","7.433","0.14866","323.3"
"10.8033","4662.71","7.4546","0.149092","324.1"
"10.83","4664.1","7.4756","0.149512","324.9"
"10.8566","4664.99","7.4962","0.149924","325.7"
"10.8832","4666.31","7.5193","0.150386","326.5"
"10.9099","4668","7.5387","0.150774","327.3"
"10.9367","4669.68","7.5596","0.151192","328.1"
"10.9633","4670.73","7.5813","0.151626","328.9"
"10.9899","4672.25","7.6036","0.152072","329.7"
"11.0165","4673.3","7.6247","0.152494","330.5"
"11.0432","4674.24","7.6468","0.152936","331.3"
"11.07","4675.48","7.6663","0.153326","332.1"
"11.0967","4677.2","7.687","0.15374","332.9"
"11.1233","4678.54","7.7105","0.15421","333.7"
"11.1499","4679.85","7.73","0.1546","334.5"
"11.1766","4681.02","7.7521","0.155042","335.3"
"11.2033","4682.24","7.7734","0.155468","336.1"
"11.23","4684.14","7.7949","0.155898","336.9"
"11.2566","4685.05","7.8176","0.156352","337.7"
"11.2832","4685.79","7.8394","0.156788","338.5"
"11.3099","4687.2","7.8598","0.157196","339.3"
"11.3366","4688.52","7.8838","0.157676","340.1"
"11.3633","4689.85","7.9006","0.158012","340.9"
"11.39","4691.58","7.9233","0.158466","341.7"
"11.4166","4692.22","7.9458","0.158916","342.5"
"11.4433","4693.38","7.9688","0.159376","343.3"
"11.4699","4695.07","7.9907","0.159814","344.1"
"11.4966","4696.4","8.0084","0.160168","344.9"
"11.5233","4697.31","8.0313","0.160626","345.7"
"11.5499","4698.19","8.0553","0.161106","346.5"
"11.5766","4699.56","8.0733","0.161466","347.3"
"11.6033","4700.93","8.094","0.16188","348.1"
"11.63","4702.1","8.1154","0.162308","348.9"
"11.6567","4703.54","8.135","0.1627","349.7"
"11.6833","4704.55","8.1586","0.163088","350.5"
"11.7099","4705.55","8.1789","0.163578","351.3"
"11.7366","4706.61","8.2015","0.16403","352.1"
"11.7633","4707.88","8.2203","0.164406","352.9"
"11.79","4708.85","8.243","0.16486","353.7"
"11.8166","4710.03","8.2614","0.165228","354.5"
"11.8432","4711.32","8.2862","0.165724","355.3"
"11.8699","4712.02","8.3092","0.166184","356.1"
"11.8967","4713.65","8.3274","0.166548","356.9"
"11.9233","4715.08","8.3488","0.166976","357.7"
"11.9499","4716.09","8.3663","0.167326","358.5"
"11.9766","4716.67","8.3919","0.167768","359.3"
"12.0033","4717.73","8.4139","0.168278","360.1"
"12.03","4719.44","8.4349","0.168698","360.9"
"12.0566","4720.78","8.4548","0.169096","361.7"
"12.0833","4721.61","8.4738","0.169476","362.5"
"12.1099","4722.86","8.4961","0.169922","363.3"
"12.1366","4724.13","8.5199","0.170398","364.1"
"12.1633","4725.29","8.5412","0.170824","364.9"
"12.19","4726.41","8.5623","0.171246","365.7"
"12.2166","4727.23","8.581","0.17162","366.5"
"12.2433","4728.37","8.5998","0.171996","367.3"
"12.27","4729.33","8.6241","0.172482","368.1"
"12.2966","4730.36","8.6455","0.17291","368.9"
"12.3233","4731.66","8.6666","0.173332","369.7"
"12.35","4732.81","8.6872","0.173744","370.5"
"12.3766","4734.01","8.7061","0.174122","371.3"
"12.4032","4734.37","8.7288","0.174576","372.1"
"12.4299","4735.59","8.7507","0.175014","372.9"
"12.4567","4736.97","8.7721","0.175442","373.7"
"12.4833","4738.11","8.7932","0.175864","374.5"
"12.51","4739.03","8.8134","0.176268","375.3"
"12.5366","4739.78","8.8336","0.176672","376.1"
"12.5633","4741.22","8.854","0.17708","376.9"
"12.59","4742.43","8.8732","0.177464","377.7"
"12.6167","4743.32","8.8957","0.177914","378.5"
"12.6432","4744.27","8.9189","0.178378","379.3"
"12.6699","4745","8.9359","0.178718","380.1"
"12.6966","4746.02","8.9578","0.179156","380.9"
"12.7233","4747.57","8.9795","0.17959","381.7"
"12.75","4748.55","9.0017","0.180034","382.5"
"12.7766","4749.45","9.0237","0.180474","383.3"
"12.8033","4750.43","9.0433","0.180866","384.1"
"12.8299","4751.41","9.0656","0.181312","384.9"
"12.8566","4752.53","9.0856","0.181712","385.7"
"12.8833","4753.71","9.1056","0.182112","386.5"
"12.91","4754.7","9.1298","0.182596","387.3"
"12.9366","4755.21","9.1489","0.182978","388.1"
"12.9632","4756.33","9.1691","0.183382","388.9"
"12.9899","4757.38","9.1937","0.183874","389.7"
"13.0166","4758.09","9.2137","0.184274","390.5"
"13.0433","4759.54","9.2358","0.184716","391.3"
"13.07","4760.9","9.2542","0.185084","392.1"
"13.0966","4761.43","9.2765","0.18553","392.9"
"13.1232","4762.17","9.2979","0.185958","393.7"
"13.15","4763.65","9.3192","0.186384","394.5"
"13.1766","4764.37","9.3399","0.186798","395.3"
"13.2032","4765.32","9.3637","0.187274","396.1"
"13.2299","4765.54","9.3812","0.187624","396.9"
"13.2566","4766.9","9.4056","0.188112","397.7"
"13.2833","4768.29","9.4246","0.188492","398.5"
"13.31","4769.38","9.4441","0.188882","399.3"
"13.3366","4770.03","9.4694","0.189388","400.1"
"13.3632","4770.74","9.4866","0.189732","400.9"
"13.3899","4771.81","9.5123","0.190246","401.7"
"13.4167","4772.93","9.5296","0.190592","402.5"
"13.4433","4773.79","9.5554","0.191108","403.3"
"13.4699","4774.53","9.5734","0.191468","404.1"
"13.4966","4775.39","9.5967","0.191934","404.9"
"13.5233","4776.3","9.6195","0.19239","405.7"
"13.55","4777.47","9.6382","0.192764","406.5"
"13.5766","4778.33","9.6587","0.193174","407.3"
"13.6033","4779.33","9.6787","0.193574","408.1"
"13.6299","4780.04","9.6988","0.193976","408.9"
"13.6566","4780.77","9.7207","0.194414","409.7"
"13.6833","4781.75","9.7462","0.194924","410.5"
"13.71","4782.79","9.7698","0.195396","411.3"
"13.7366","4783.85","9.7862","0.195724","412.1"
"13.7633","4784.79","9.8099","0.196198","412.9"
"13.7899","4785.13","9.8367","0.196734","413.7"
"13.8166","4786.15","9.8545","0.19709","414.5"
"13.8433","4787.62","9.8821","0.197642","415.3"
"13.87","4788.6","9.9025","0.19805","416.1"
"13.8966","4789.15","9.9205","0.19841","416.9"
"13.9233","4789.58","9.9402","0.198804","417.7"
"13.9499","4790.75","9.9609","0.199218","418.5"
"13.9767","4791.99","9.9866","0.199732","419.3"
"14.0033","4792.7","10.0094","0.200188","420.1"
"14.0299","4793.23","10.0267","0.200534","420.9"
"14.0566","4794.44","10.0453","0.200906","421.7"
"14.0832","4795.61","10.066","0.20132","422.5"
"14.11","4796.08","10.0896","0.201792","423.3"
"14.1367","4796.97","10.1141","0.202282","424.1"
"14.1633","4797.66","10.1341","0.202682","424.9"
"14.1899","4798.48","10.153","0.20306","425.7"
"14.2166","4799.33","10.1724","0.203448","426.5"
"14.2433","4800.43","10.1967","0.203934","427.3"
"14.27","4801.01","10.2185","0.20437","428.1"
"14.2966","4801.97","10.2406","0.204812","428.9"
"14.3232","4802.81","10.2625","0.20525","429.7"
"14.3499","4803.48","10.2798","0.205596","430.5"
"14.3767","4804.6","10.2998","0.205996","431.3"
"14.4033","4806.02","10.3254","0.206508","432.1"
"14.4299","4806.18","10.3497","0.206994","432.9"
"14.4566","4806.96","10.3732","0.207464","433.7"
"14.4833","4807.64","10.3919","0.207838","434.5"
"14.51","4808.71","10.4078","0.208156","435.3"
"14.5366","4809.65","10.4333","0.208666","436.1"
"14.5633","4810.33","10.4559","0.209118","436.9"
"14.5899","4810.79","10.4799","0.209598","437.7"
"14.6166","4811.51","10.4997","0.209994","438.5"
"14.6433","4812.73","10.5183","0.210366","439.3"
"14.67","4814.04","10.5417","0.210834","440.1"
"14.6966","4814.68","10.5636","0.211272","440.9"
"14.7233","4815.4","10.5844","0.211688","441.7"
"14.75","4816.16","10.6105","0.21221","442.5"
"14.7766","4817.36","10.6315","0.21263","443.3"
"14.8033","4817.93","10.6527","0.213054","444.1"
"14.83","4818.62","10.6734","0.213468","444.9"
"14.8566","4819.43","10.6959","0.213918","445.7"
"14.8832","4820.22","10.7212","0.214424","446.5"
"14.9099","4821.24","10.7418","0.214836","447.3"
"14.9367","4822.08","10.7672","0.215344","448.1"
"14.9633","4822.92","10.7879","0.215758","448.9"
"14.9899","4823.77","10.8087","0.216174","449.7"
"15.0166","4824.375","10.8363","0.216726","450.5"
"15.0433","4824.92","10.8597","0.217194","451.3"
"15.07","4825.9","10.8818","0.217636","452.1"
"15.0967","4826.86","10.9015","0.21803","452.9"
"15.1232","4827.32","10.9254","0.218508","453.7"
"15.1499","4827.74","10.9474","0.218948","454.5"
"15.1766","4828.58","10.9747","0.219494","455.3"
"15.2034","4830.12","10.9937","0.219874","456.1"
"15.23","4830.84","11.0187","0.220374","456.9"
"15.2566","4831.31","11.0447","0.220894","457.7"
"15.2833","4831.96","11.0665","0.22133","458.5"
"15.3099","4832.6","11.0926","0.221852","459.3"
"15.3366","4833.24","11.1173","0.222346","460.1"
"15.3633","4834.21","11.1421","0.222842","460.9"
"15.39","4835.1","11.1623","0.223246","461.7"
"15.4166","4835.59","11.1857","0.223714","462.5"
"15.4433","4836.06","11.2113","0.224226","463.3"
"15.4699","4837.06","11.234","0.22468","464.1"
"15.4966","4837.91","11.2637","0.225274","464.9"
"15.5233","4838.86","11.282","0.22564","465.7"
"15.55","4839.46","11.3003","0.226006","466.5"
"15.5766","4840.31","11.3204","0.226408","467.3"
"15.6033","4840.63","11.3419","0.226838","468.1"
"15.63","4841.41","11.3615","0.22723","468.9"
"15.6566","4842.56","11.3846","0.227692","469.7"
"15.6833","4842.99","11.4062","0.228124","470.5"
"15.7099","4843.62","11.4246","0.228492","471.3"
"15.7366","4844.68","11.4448","0.228896","472.1"
"15.7633","4845.2","11.4653","0.229306","472.9"
"15.79","4846.15","11.4897","0.229794","473.7"
"15.8166","4847.08","11.5116","0.230232","474.5"
"15.8432","4846.88","11.53","0.2306","475.3"
"15.8699","4847.99","11.5519","0.231038","476.1"
"15.8967","4849.17","11.5709","0.231418","476.9"
"15.9233","4849.92","11.591","0.23182","477.7"
"15.9499","4850.13","11.6166","0.232332","478.5"
"15.9765","4850.41","11.6376","0.232752","479.3"
"16.0033","4851.58","11.6553","0.233106","480.1"
"16.03","4852.53","11.6766","0.233532","480.9"
"16.0566","4853.41","11.697","0.23394","481.7"
"16.0833","4853.57","11.7203","0.234406","482.5"
"16.1099","4854.36","11.7425","0.23485","483.3"
"16.1366","4855.05","11.7641","0.235282","484.1"
"16.1633","4855.76","11.7822","0.235644","484.9"
"16.19","4856.64","11.8019","0.236038","485.7"
"16.2166","4857.16","11.8242","0.236484","486.5"
"16.2432","4857.86","11.8481","0.236962","487.3"
"16.2699","4858.36","11.8708","0.237416","488.1"
"16.2966","4858.99","11.8906","0.237812","488.9"
"16.3233","4860","11.9122","0.238244","489.7"
"16.35","4860.97","11.9322","0.238644","490.5"
"16.3766","4861.39","11.9545","0.23909","491.3"
"16.4033","4861.81","11.9746","0.239492","492.1"
"16.4299","4862.59","11.9963","0.239926","492.9"
"16.4566","4863.44","12.0174","0.240348","493.7"
"16.4833","4864.13","12.0402","0.240804","494.5"
"16.5099","4864.54","12.0607","0.241214","495.3"
"16.5366","4865.01","12.0857","0.241714","496.1"
"16.5633","4865.65","12.1014","0.242028","496.9"
"16.59","4866.72","12.1238","0.242476","497.7"
"16.6167","4867.68","12.1457","0.242914","498.5"
"16.6433","4868.11","12.1662","0.243324","499.3"
"16.6699","4868.48","12.1935","0.24387","500.1"
"16.6966","4869.38","12.2121","0.244242","500.9"
"16.7233","4870.23","12.2332","0.244664","501.7"
"16.75","4870.62","12.2571","0.245142","502.5"
"16.7766","4871.24","12.2784","0.245568","503.3"
"16.8032","4871.72","12.3014","0.246028","504.1"
"16.8299","4872.08","12.3243","0.246486","504.9"
"16.8567","4873.27","12.3424","0.246848","505.7"
"16.8833","4874.24","12.3645","0.24729","506.5"
"16.9099","4874.75","12.3856","0.247712","507.3"
"16.9366","4875.44","12.4068","0.248136","508.1"
"16.9633","4875.89","12.4325","0.24865","508.9"
"16.99","4876.28","12.4524","0.249048","509.7"
"17.0166","4877.44","12.4742","0.249484","510.5"
"17.0433","4877.97","12.4926","0.249852","511.3"
"17.0699","4878.66","12.5182","0.250364","512.1"
"17.0966","4878.92","12.5452","0.250904","512.9"
"17.1233","4879.87","12.5631","0.251262","513.7"
"17.15","4881.01","12.5875","0.25175","514.5"
"17.1766","4881.43","12.6096","0.252192","515.3"
"17.2033","4881.67","12.6281","0.252562","516.1"
"17.23","4882.15","12.6513","0.253026","516.9"
"17.2566","4883.22","12.6758","0.253516","517.7"
"17.2833","4883.62","12.6977","0.253954","518.5"
"17.31","4884.45","12.7182","0.254364","519.3"
"17.3366","4885.04","12.7376","0.254752","520.1"
"17.3632","4885.71","12.7654","0.255308","520.9"
"17.3899","4886.13","12.787","0.25574","521.7"
"17.4167","4887.18","12.8162","0.256324","522.5"
"17.4433","4887.68","12.8336","0.256672","523.3"
"17.4699","4888.35","12.8558","0.257116","524.1"
"17.4966","4888.92","12.8791","0.257582","524.9"
"17.5233","4889.56","12.9019","0.258038","525.7"
"17.55","4890.39","12.9246","0.258492","526.5"
"17.5766","4890.73","12.9513","0.259026","527.3"
"17.6032","4891.26","12.9701","0.259402","528.1"
"17.6299","4891.59","12.995","0.2599","528.9"
"17.6566","4891.99","13.0187","0.260374","529.7"
"17.6833","4893.45","13.0376","0.260752","530.5"
"17.71","4894.12","13.0633","0.261266","531.3"
"17.7366","4894.53","13.0862","0.261724","532.1"
"17.7633","4895.12","13.1052","0.262104","532.9"
"17.7899","4895.56","13.1255","0.26251","533.7"
"17.8166","4896.11","13.1522","0.263044","534.5"
"17.8433","4897.4","13.1726","0.263452","535.3"
"17.8699","4897.71","13.1911","0.263822","536.1"
"17.8966","4897.83","13.2118","0.264236","536.9"
"17.9232","4898.71","13.228","0.26456","537.7"
"17.95","4899.64","13.252","0.26504","538.5"
"17.9766","4900.31","13.2712","0.265424","539.3"
"18.0033","4900.74","13.2888","0.265776","540.1"
"18.03","4901.4","13.3069","0.266138","540.9"
"18.0566","4901.91","13.3286","0.266572","541.7"
"18.0832","4902.44","13.3502","0.267004","542.5"
"18.11","4902.81","13.3691","0.267382","543.3"
"18.1366","4903.7","13.3895","0.26779","544.1"
"18.1633","4904.17","13.4069","0.268138","544.9"
"18.1899","4904.86","13.4269","0.268538","545.7"
"18.2166","4905.66","13.4483","0.268966","546.5"
"18.2433","4906.29","13.4702","0.269404","547.3"
"18.27","4907.15","13.4874","0.269748","548.1"
"18.2966","4907.59","13.5078","0.270156","548.9"
"18.3232","4907.76","13.5269","0.270538","549.7"
"18.3499","4908.37","13.5487","0.270974","550.5"
"18.3767","4909.68","13.5675","0.27135","551.3"
"18.4033","4910.31","13.5873","0.271746","552.1"
"18.4299","4910.43","13.6054","0.272108","552.9"
"18.4566","4910.74","13.626","0.27252","553.7"
"18.4833","4911.44","13.6453","0.272906","554.5"
"18.51","4912.53","13.6651","0.273302","555.3"
"18.5366","4913.13","13.6852","0.273704","556.1"
"18.5633","4913.61","13.705","0.2741","556.9"
"18.5899","4913.84","13.7253","0.274506","557.7"
"18.6166","4914.49","13.7432","0.274864","558.5"
"18.6433","4915.24","13.7627","0.275254","559.3"
"18.67","4915.82","13.786","0.27572","560.1"
"18.6966","4916.21","13.804","0.27608","560.9"
"18.7233","4916.66","13.8233","0.276466","561.7"
"18.7499","4917.38","13.844","0.27688","562.5"
"18.7766","4917.98","13.8616","0.277232","563.3"
"18.8033","4918.52","13.8867","0.277734","564.1"
"18.83","4919.32","13.9052","0.278104","564.9"
"18.8566","4919.64","13.9149","0.278298","565.7"
"18.8833","4920.03","13.943","0.27886","566.5"
"18.9099","4920.56","13.9625","0.27925","567.3"
"18.9367","4921.41","13.9877","0.279754","568.1"
"18.9633","4922.16","14.0072","0.280144","568.9"
"18.9899","4922.5","14.0241","0.280482","569.7"
"19.0166","4922.79","14.0459","0.280918","570.5"
"19.0432","4923.35","14.0637","0.281274","571.3"
"19.07","4924.2","14.0837","0.281674","572.1"
"19.0967","4924.87","14.1083","0.282166","572.9"
"19.1232","4924.9","14.1292","0.282584","573.7"
"19.1499","4925.24","14.1452","0.282904","574.5"
"19.1767","4926.26","14.1673","0.283346","575.3"
"19.2033","4926.89","14.1849","0.283698","576.1"
"19.23","4927.7","14.2066","0.284132","576.9"
"19.2566","4927.79","14.2278","0.284556","577.7"
"19.2832","4928.35","14.2512","0.285024","578.5"
"19.3099","4928.77","14.2717","0.285434","579.3"
"19.3366","4929.41","14.296","0.28592","580.1"
"19.3633","4930.16","14.3157","0.286314","580.9"
"19.3899","4930.38","14.3388","0.286776","581.7"
"19.4166","4930.81","14.3663","0.287326","582.5"
"19.4433","4931.48","14.3846","0.287692","583.3"
"19.4699","4931.83","14.409","0.28818","584.1"
"19.4966","4932.5","14.4258","0.288516","584.9"
"19.5233","4933.35","14.4554","0.289108","585.7"
"19.5499","4932.62","14.4817","0.289634","586.5"
"19.5766","4932.85","14.5133","0.290266","587.3"
"19.6032","4933.48","14.5348","0.290696","588.1"
"19.63","4934.64","14.5593","0.291186","588.9"
"19.6567","4935.19","14.5862","0.291724","589.7"
"19.6833","4935.6","14.6108","0.292216","590.5"
"19.7099","4935.9","14.6331","0.292662","591.3"
"19.7366","4936.3","14.6663","0.293326","592.1"
"19.7633","4937.31","14.6944","0.293888","592.9"
"19.79","4937.53","14.7166","0.294332","593.7"
"19.8166","4937.82","14.7474","0.294948","594.5"
"19.8432","4937.85","14.7615","0.29523","595.3"
"19.87","4938.97","14.7793","0.295586","596.1"
"19.8967","4939.87","14.7988","0.295976","596.9"
"19.9233","4940.47","14.8169","0.296338","597.7"
"19.9499","4940.58","14.8379","0.296758","598.5"
"19.9766","4941.26","14.8564","0.297128","599.3"
"20.0033","4941.7","14.8744","0.297488","600.1"
"20.03","4941.96","14.891","0.29782","600.9"
"20.0566","4942.52","14.9087","0.298174","601.7"
"20.0833","4943.03","14.9307","0.298614","602.5"
"20.1099","4943.51","14.9485","0.29897","603.3"
"20.1366","4944.01","14.9666","0.299332","604.1"
"20.1633","4944.85","14.9825","0.29965","604.9"
"20.19","4945.36","15.0006","0.300012","605.7"
"20.2166","4946.07","15.0236","0.300472","606.5"
"20.2433","4946.32","15.041","0.30082","607.3"
"20.2699","4946.27","15.06","0.3012","608.1"
"20.2966","4946.73","15.0771","0.301542","608.9"
"20.3233","4947.77","15.0948","0.301896","609.7"
"20.35","4948.32","15.1136","0.302272","610.5"
"20.3766","4948.37","15.1351","0.302702","611.3"
"20.4033","4948.95","15.1522","0.303044","612.1"
"20.4299","4949.82","15.1709","0.303418","612.9"
"20.4566","4950.57","15.1905","0.30381","613.7"
"20.4833","4950.63","15.2051","0.304102","614.5"
"20.51","4949.48","15.2268","0.304536","615.3"
"20.5366","4950.23","15.2453","0.304906","616.1"
"20.5633","4950.8","15.2628","0.305256","616.9"
"20.59","4951.28","15.2809","0.305618","617.7"
"20.6166","4951.97","15.2972","0.305944","618.5"
"20.6433","4952.34","15.3137","0.306274","619.3"
"20.6699","4952.79","15.3352","0.306704","620.1"
"20.6966","4953.66","15.3524","0.307048","620.9"
"20.7233","4953.67","15.3708","0.307416","621.7"
"20.75","4954.54","15.3877","0.307754","622.5"
"20.7766","4955.04","15.4051","0.308102","623.3"
"20.8032","4955.25","15.4241","0.308482","624.1"
"20.8299","4955.66","15.4435","0.30887","624.9"
"20.8567","4956.73","15.4609","0.309218","625.7"
"20.8833","4956.96","15.48","0.3096","626.5"
"20.9099","4957.56","15.4957","0.309914","627.3"
"20.9365","4957.76","15.5168","0.310336","628.1"
"20.9633","4957.96","15.5353","0.310706","628.9"
"20.99","4956.44","15.5499","0.310998","629.7"
"21.0167","4957.7","15.567","0.31134","630.5"
"21.0433","4958.35","15.5854","0.311708","631.3"
"21.0699","4958.38","15.6031","0.312062","632.1"
"21.0966","4959.02","15.6206","0.312412","632.9"
"21.1233","4960.32","15.638","0.31276","633.7"
"21.15","4960.79","15.6559","0.313118","634.5"
"21.1766","4960.8","15.6754","0.313508","635.3"
"21.2032","4961.21","15.6928","0.313856","636.1"
"21.2299","4962.02","15.7095","0.31419","636.9"
"21.2566","4962.5","15.7273","0.314546","637.7"
"21.2833","4962.88","15.7445","0.31489","638.5"
"21.31","4963.56","15.7629","0.315258","639.3"
"21.3366","4963.81","15.781","0.31562","640.1"
"21.3632","4964.29","15.8019","0.316038","640.9"
"21.3899","4964.74","15.8188","0.316376","641.7"
"21.4166","4965.17","15.8351","0.316702","642.5"
"21.4433","4965.79","15.8528","0.317056","643.3"
"21.47","4966.43","15.8703","0.317406","644.1"
"21.4966","4966.52","15.8906","0.317812","644.9"
"21.5233","4967.07","15.9083","0.318166","645.7"
"21.55","4967.82","15.9246","0.318492","646.5"
"21.5767","4968.78","15.9401","0.318802","647.3"
"21.6032","4968.66","15.9592","0.319184","648.1"
"21.6299","4968.94","15.9793","0.319586","648.9"
"21.6566","4969.45","15.997","0.31994","649.7"
"21.6833","4970.41","16.0136","0.320272","650.5"
"21.7099","4970.66","16.0304","0.320608","651.3"
"21.7366","4971.18","16.0487","0.320974","652.1"
"21.7632","4971.43","16.0655","0.32131","652.9"
"21.7899","4971.79","16.0869","0.321738","653.7"
"21.8167","4972.99","16.1022","0.322044","654.5"
"21.8433","4973.59","16.1205","0.32241","655.3"
"21.8699","4973.54","16.1387","0.322774","656.1"
"21.8966","4973.98","16.1535","0.32307","656.9"
"21.9233","4974.15","16.1745","0.32349","657.7"
"21.9499","4974.51","16.1917","0.323834","658.5"
"21.9766","4974.99","16.2126","0.324252","659.3"
"22.0033","4975.56","16.2275","0.32455","660.1"
"22.0299","4975.88","16.2465","0.32493","660.9"
"22.0566","4976.26","16.2618","0.325236","661.7"
"22.0832","4976.82","16.2827","0.325654","662.5"
"22.11","4977.56","16.296","0.32592","663.3"
"22.1366","4977.67","16.3145","0.32629","664.1"
"22.1633","4978.22","16.3344","0.326688","664.9"
"22.1899","4977.97","16.3522","0.327044","665.7"
"22.2166","4977.07","16.3688","0.327376","666.5"
"22.2433","4977.62","16.3859","0.327718","667.3"
"22.27","4978.01","16.3991","0.327982","668.1"
"22.2966","4978.26","16.4181","0.328362","668.9"
"22.3232","4977.13","16.4339","0.328678","669.7"
"22.3499","4976.34","16.4516","0.329032","670.5"
"22.3767","4977.33","16.4705","0.32941","671.3"
"22.4033","4977.85","16.4862","0.329724","672.1"
"22.4299","4978.03","16.5005","0.33001","672.9"
"22.4566","4978.65","16.5149","0.330298","673.7"
"22.4833","4979.18","16.5322","0.330644","674.5"
"22.51","4979.67","16.5509","0.331018","675.3"
"22.5366","4980.12","16.5684","0.331368","676.1"
"22.5632","4980.42","16.5843","0.331686","676.9"
"22.5899","4980.57","16.6011","0.332022","677.7"
"22.6166","4980.97","16.6149","0.332298","678.5"
"22.6433","4981.61","16.6325","0.33265","679.3"
"22.67","4981.83","16.6455","0.33291","680.1"
"22.6966","4982.16","16.6645","0.33329","680.9"
"22.7233","4982.5","16.6789","0.333578","681.7"
"22.7499","4983.09","16.6956","0.333912","682.5"
"22.7766","4983.43","16.713","0.33426","683.3"
"22.8033","4983.99","16.7292","0.334584","684.1"
"22.83","4984.37","16.7456","0.334912","684.9"
"22.8566","4984.72","16.7616","0.335232","685.7"
"22.8832","4984.55","16.7768","0.335536","686.5"
"22.91","4984.76","16.7951","0.335902","687.3"
"22.9366","4984.21","16.8114","0.336228","688.1"
"22.9633","4984.08","16.828","0.33656","688.9"
"22.99","4983","16.8423","0.336846","689.7"
"23.0166","4982.47","16.8539","0.337078","690.5"
"23.0433","4982.8","16.8692","0.337384","691.3"
"23.07","4984.07","16.8873","0.337746","692.1"
"23.0966","4983.79","16.9038","0.338076","692.9"
"23.1233","4980.63","16.9173","0.338346","693.7"
"23.1499","4980.66","16.9296","0.338592","694.5"
"23.1766","4981.8","16.945","0.3389","695.3"
"23.2033","4980.46","16.9626","0.339252","696.1"
"23.23","4979.13","16.9734","0.339468","696.9"
"23.2566","4979.21","16.9876","0.339752","697.7"
"23.2832","4978.87","17.0041","0.340082","698.5"
"23.3099","4971.85","17.015","0.3403","699.3"
"23.3367","4966.78","17.0294","0.340588","700.1"
"23.3633","4966.6","17.037","0.34074","700.9"
"23.3899","4967.51","17.0521","0.341042","701.7"
"23.4166","4967.99","17.0634","0.341268","702.5"
"23.4433","4968.83","17.0732","0.341464","703.3"
"23.47","4969.5","17.0851","0.341702","704.1"
"23.4966","4969.39","17.0968","0.341936","704.9"
"23.5233","4968.76","17.1065","0.34213","705.7"
"23.5499","4964.52","17.1155","0.34231","706.5"
"23.5766","4960.52","17.1242","0.342484","707.3"
"23.6033","4961.31","17.134","0.34268","708.1"
"23.63","4961.83","17.1433","0.342866","708.9"
"23.6566","4961.68","17.1551","0.343102","709.7"
"23.6833","4960.68","17.1638","0.343276","710.5"
"23.7099","4956.19","17.1719","0.343438","711.3"
"23.7366","4954.77","17.1819","0.343638","712.1"
"23.7633","4954.49","17.1888","0.343776","712.9"
"23.79","4954.5","17.1976","0.343952","713.7"
"23.8166","4950.97","17.205","0.3441","714.5"
"23.8432","4943.18","17.2103","0.344206","715.3"
"23.8699","4940.06","17.2159","0.344318","716.1"
"23.8966","4936.25","17.2195","0.34439","716.9"
"23.9233","4935.61","17.2286","0.344572","717.7"
"23.9499","4935.87","17.2329","0.344658","718.5"
"23.9766","4935.13","17.2382","0.344764","719.3"
"24.0033","4933.31","17.2463","0.344926","720.1"
"24.03","4931.81","17.2513","0.345026","720.9"
"24.0567","4930.9","17.2562","0.345124","721.7"
"24.0832","4930.26","17.2623","0.345246","722.5"
"24.1099","4928.81","17.2675","0.34535","723.3"
"24.1366","4926.61","17.2736","0.345472","724.1"
"24.1633","4925.84","17.2781","0.345562","724.9"
"24.1899","4925.3","17.285","0.3457","725.7"
"24.2166","4924.2","17.2885","0.34577","726.5"
"24.2432","4912.68","17.2895","0.34579","727.3"
"24.2699","4911.31","17.2926","0.345852","728.1"
"24.2966","4910.75","17.2952","0.345904","728.9"
"24.3233","4909.08","17.3003","0.346006","729.7"
"24.3499","4900.66","17.3025","0.34605","730.5"
"24.3766","4897.4","17.3065","0.34613","731.3"
"24.4033","4896.87","17.3098","0.346196","732.1"
"24.4299","4896.45","17.3128","0.346256","732.9"
"24.4566","4895.82","17.3161","0.346322","733.7"
"24.4833","4894.56","17.3179","0.346358","734.5"
"24.5099","4886.75","17.3196","0.346392","735.3"
"24.5366","4881.62","17.3238","0.346476","736.1"
"24.5633","4866.97","17.3234","0.346468","736.9"
"24.59","4851.95","17.3232","0.346464","737.7"
"24.6167","4848.55","17.3223","0.346446","738.5"
"24.6433","4844.61","17.3225","0.34645","739.3"
"24.6699","4834.57","17.3242","0.346484","740.1"
"24.6966","4799.45","17.3228","0.346456","740.9"
"24.7233","4773.73","17.3179","0.346358","741.7"
"24.75","4766.5","17.3163","0.346326","742.5"
"24.7766","4758.67","17.3164","0.346328","743.3"
"24.8032","4756.13","17.317","0.34634","744.1"
"24.83","4753.53","17.3169","0.346338","744.9"
"24.8567","4751.27","17.3155","0.34631","745.7"
"24.8833","4750.05","17.3167","0.346334","746.5"
"24.9099","4748.5","17.3171","0.346342","747.3"
"24.9366","4745.57","17.3191","0.346382","748.1"
"24.9633","4738.1","17.3183","0.346366","748.9"
"24.99","4717.66","17.3164","0.346328","749.7"
"25.0166","4706.44","17.315","0.3463","750.5"
"25.0433","4690.61","17.3142","0.346284","751.3"
"25.0699","4674.9","17.3133","0.346266","752.1"
"25.0966","4663.11","17.3118","0.346236","752.9"
"25.1233","4658.13","17.3101","0.346202","753.7"
"25.15","4655.1","17.3087","0.346174","754.5"
"25.1766","4652.5","17.3118","0.346236","755.3"
"25.2033","4647.82","17.3106","0.346212","756.1"
"25.2299","4638.61","17.3079","0.346158","756.9"
"25.2566","4628.93","17.3071","0.346142","757.7"
"25.2833","4610.38","17.305","0.3461","758.5"
"25.31","4571.27","17.3023","0.346046","759.3"
"25.3366","4550.08","17.2999","0.345998","760.1"
"25.3633","4530.01","17.2975","0.34595","760.9"
"25.3899","4525.46","17.296","0.34592","761.7"
"25.4166","4514.3","17.295","0.3459","762.5"
"25.4433","4501.92","17.2926","0.345852","763.3"
"25.47","4496.37","17.292","0.34584","764.1"
"25.4966","4494.54","17.2919","0.345838","764.9"
"25.5233","4492.5","17.292","0.34584","765.7"
"25.55","4473.76","17.2906","0.345812","766.5"
"25.5766","4445.62","17.2879","0.345758","767.3"
"25.6032","4414.32","17.2805","0.34561","768.1"
"25.6299","4407.55","17.2813","0.345626","768.9"
"25.6566","4390.21","17.2829","0.345658","769.7"
"25.6833","4369.18","17.2793","0.345586","770.5"
"25.71","4336.76","17.2768","0.345536","771.3"
"25.7366","4180.92","17.2608","0.345216","772.1"
"25.7633","3739.29","17.2423","0.344846","772.9"
"25.79","3572.53","17.2","0.344","773.7"
"25.8167","3526.17","17.1915","0.34383","774.5"
"25.8433","3492.4","17.1902","0.343804","775.3"
"25.8699","3466.7","17.1831","0.343662","776.1"
"25.8966","3442.94","17.179","0.34358","776.9"
"25.9233","3436.72","17.1778","0.343556","777.7"
"25.9499","3416.31","17.1795","0.34359","778.5"
"25.9767","3378.6","17.1693","0.343386","779.3"
"26.0033","3354.11","17.1658","0.343316","780.1"
"26.03","2599.25","17.1526","0.34315","780.9"
"26.0319","1136.19","17.1526","0.343052","780.952"