File: experimental_data/tensile_specimen_test_data/tensile_test_data/20250312/original_data/without_extensometer/SSS 7 03-12-25 20 02 49 下午/数采：横梁, … - (实时值).csv
"文件路径: C:\Users\Lenovo\Desktop\Wayne\20250312\原始数据\无引伸计\SSS 7 03-12-25 20 02 49 下午\数采：横梁, … - (实时值).csv   "
"试验: MTS EM 拉伸试验-W 3"
"试验运行: SSS 7"
"日期: 2025/3/12 19:42:30"
""
""
"横梁 ","力 ","应变 ","应力 ","时间 "
"mm","N","mm/mm","N/mm²","sec"
"0.00246845","-125.372","2.01823e-05","-6.42933","0.1"
"0.0399143","83.537","0.000332231","4.283951","1.2"
"0.0765684","292.294","0.00063807","14.9894","2.3"
"0.113269","500.387","0.000943521","25.6609","3.4"
"0.14997","704.552","0.00124936","36.1308","4.5"
"0.186577","903.501","0.00155442","46.3334","5.6"
"0.223185","1094.4","0.00185987","56.12318","6.7"
"0.259932","1277.87","0.00216571","65.5319","7.8"
"0.296586","1456.76","0.00247155","74.7057","8.9"
"0.333194","1627.59","0.00277662","83.46612","10"
"0.369895","1790.12","0.00308207","91.8011","11.1"
"0.406595","1941.51","0.00338791","99.5648","12.2"
"0.443296","2080.24","0.00369374","106.679","13.3"
"0.479903","2205.86","0.0039992","113.1212","14.4"
"0.516558","2320.23","0.00430426","118.986","15.5"
"0.553258","2423.62","0.0046101","124.288","16.6"
"0.589959","2516.28","0.00491594","129.04","17.7"
"0.62666","2596.71","0.00522178","133.164","18.8"
"0.663221","2664.89","0.00552645","136.661","19.9"
"0.699875","2726.61","0.00583229","139.826","21"
"0.736622","2784.24","0.00613813","142.782","22.1"
"0.773276","2836.79","0.00644358","145.476","23.2"
"0.80993","2885.39","0.00674903","147.969","24.3"
"0.846584","2931.51","0.00705487","150.334","25.4"
"0.883285","2974.16","0.00736071","152.521","26.5"
"0.919986","3014.91","0.00766616","154.611","27.6"
"0.956593","3053.27","0.00797122","156.578","28.7"
"0.993201","3090.81","0.00827667","158.503","29.8"
"1.0299","3125.7","0.00858212","160.292","30.9"
"1.0666","3159.33","0.00888835","162.017","32"
"1.10326","3191.52","0.0091938","163.668","33.1"
"1.13991","3221.84","0.00949887","165.223","34.2"
"1.17656","3251.17","0.0098047","166.727","35.3"
"1.21327","3279.14","0.0101102","168.161","36.4"
"1.24992","3305.14","0.0104156","169.494","37.5"
"1.28657","3330.69","0.0107211","170.804","38.6"
"1.32318","3355.17","0.0110265","172.06","39.7"
"1.35993","3378.54","0.0113327","173.259","40.8"
"1.39663","3401.12","0.0116382","174.416","41.9"
"1.43324","3422.3","0.0119432","175.502","43"
"1.46989","3442.81","0.0122487","176.554","44.1"
"1.50659","3462.59","0.0125545","177.569","45.2"
"1.54329","3445.01","0.0128608","176.667","46.3"
"1.5799","3485.67","0.0131658","178.753","47.4"
"1.61655","3508.31","0.0134709","179.913","48.5"
"1.65325","3527.52","0.0137767","180.898","49.6"
"1.68996","3544.68","0.0140826","181.778","50.7"
"1.72661","3560.87","0.0143884","182.608","51.8"
"1.76326","3576.76","0.0146935","183.424","52.9"
"1.79992","3592.26","0.0149993","184.218","54"
"1.83666","3607.53","0.0153052","185.002","55.1"
"1.87332","3622.21","0.0156106","185.754","56.2"
"1.90993","3635.88","0.0159157","186.455","57.3"
"1.94653","3649.37","0.0162207","187.147","58.4"
"1.98328","3663.27","0.016527","187.86","59.5"
"2.01994","3676.27","0.0168324","188.526","60.6"
"2.05659","3688.38","0.0171379","189.148","61.7"
"2.09324","3701.21","0.0174433","189.806","62.8"
"2.1299","3713.56","0.0177491","190.439","63.9"
"2.1666","3725.32","0.0180546","191.042","65"
"2.20325","3737.24","0.01836","191.653","66.1"
"2.23986","3726.83","0.0186651","191.119","67.2"
"2.27656","3733.375","0.0189709","191.455","68.3"
"2.31331","3756.65","0.0192772","192.649","69.4"
"2.34996","3770.6","0.0195826","193.364","70.5"
"2.38657","3782","0.0198877","193.949","71.6"
"2.42322","3792.79","0.0201931","194.502","72.7"
"2.45997","3803.92","0.0204994","195.073","73.8"
"2.49663","3813.98","0.0208048","195.589","74.9"
"2.53328","3823.62","0.0211103","196.083","76"
"2.56989","3833.62","0.0214153","196.596","77.1"
"2.60659","3843.51","0.0217216","197.103","78.2"
"2.64329","3853.46","0.022027","197.614","79.3"
"2.67994","3862.8","0.0223325","198.092","80.4"
"2.7166","3871.83","0.0226379","198.555","81.5"
"2.7533","3862.11","0.0229438","198.057","82.6"
"2.79","3878.71","0.0232496","198.908","83.7"
"2.82665","3889.11","0.023555","199.442","84.8"
"2.86321","3898.89","0.0238597","199.943","85.9"
"2.89991","3908.95","0.0241656","200.459","87"
"2.93661","3918.54","0.0244714","200.951","88.1"
"2.97327","3926.86","0.0247768","201.377","89.2"
"3.00992","3935.83","0.0250823","201.837","90.3"
"3.04658","3943.82","0.0253877","202.247","91.4"
"3.08328","3952.25","0.0256936","202.679","92.5"
"3.11993","3960.55","0.025999","203.105","93.6"
"3.15654","3968.26","0.0263041","203.501","94.7"
"3.19319","3976.16","0.0266096","203.906","95.8"
"3.22989","3984.64","0.0269154","204.341","96.9"
"3.26664","3992.65","0.0272216","204.751","98"
"3.30325","4000.02","0.0275271","205.129","99.1"
"3.3399","4007.67","0.0278321","205.5216","100.2"
"3.37656","4014.01","0.028138","205.847","101.3"
"3.41326","4022.22","0.0284438","206.268","102.4"
"3.44996","4029.72","0.0287493","206.652","103.5"
"3.48657","4037.09","0.0290543","207.03","104.6"
"3.52327","4043.36","0.0293602","207.352","105.7"
"3.55997","4051.47","0.029666","207.768","106.8"
"3.59662","4058.48","0.0299715","208.127","107.9"
"3.63323","4065.89","0.0302769","208.507","109"
"3.66993","4072.9","0.0305824","208.866","110.1"
"3.70663","4080.34","0.0308882","209.248","111.2"
"3.74333","4087.02","0.031194","209.591","112.3"
"3.77994","4093.76","0.0314991","209.936","113.4"
"3.81659","4100.8","0.0318045","210.297","114.5"
"3.85325","4107.34","0.03211","210.633","115.6"
"3.88995","4114.42","0.0324158","210.996","116.7"
"3.9266","4121.17","0.0327213","211.342","117.8"
"3.96321","4125.07","0.0330267","211.542","118.9"
"3.99991","4132.43","0.0333326","211.919","120"
"4.03661","4139.96","0.033638","212.306","121.1"
"4.07326","4146.19","0.0339435","212.625","122.2"
"4.10987","4152.15","0.0342485","212.931","123.3"
"4.14653","4159.11","0.0345544","213.287","124.4"
"4.18323","4165.98","0.0348602","213.64","125.5"
"4.21997","4172.14","0.0351661","213.956","126.6"
"4.25663","4176.88","0.0354715","214.199","127.7"
"4.29324","4183.41","0.0357766","214.534","128.8"
"4.32994","4189.75","0.0360824","214.859","129.9"
"4.36664","4196.38","0.0363883","215.1992","131"
"4.40324","4111.39","0.0366933","210.841","132.1"
"4.4399","4161.36","0.0369988","213.403","133.2"
"4.4766","4185.38","0.0373046","214.635","134.3"
"4.5133","4198.52","0.0376104","215.309","135.4"
"4.54995","4207.24","0.0379159","215.756","136.5"
"4.58656","4214.27","0.0382213","216.116","137.6"
"4.62326","4221.12","0.0385272","216.468","138.7"
"4.65996","4227.44","0.0388326","216.792","139.8"
"4.69666","4233.17","0.0391385","217.086","140.9"
"4.73327","4238.6","0.0394435","217.364","142"
"4.76988","4244.02","0.0397486","217.642","143.1"
"4.80663","4250.04","0.0400548","217.951","144.2"
"4.84328","4255.76","0.0403603","218.244","145.3"
"4.87989","4260.45","0.0406657","218.485","146.4"
"4.91654","4266.38","0.0409712","218.788","147.5"
"4.95324","4272","0.041277","219.0768","148.6"
"4.98994","4277.31","0.0415829","219.3492","149.7"
"5.02655","4282.11","0.0418879","219.596","150.8"
"5.06321","4287.22","0.042193","219.858","151.9"
"5.09986","4292.71","0.0424988","220.139","153"
"5.13661","4297.96","0.0428047","220.408","154.1"
"5.17331","4303.65","0.0431105","220.7","155.2"
"5.20991","4307.85","0.0434156","220.916","156.3"
"5.24657","4313.01","0.0437214","221.18","157.4"
"5.28327","4318.59","0.0440272","221.466","158.5"
"5.31992","4323.29","0.0443327","221.707","159.6"
"5.35658","4327.66","0.0446378","221.931","160.7"
"5.39323","4333.04","0.0449432","222.207","161.8"
"5.42993","4338.03","0.0452494","222.463","162.9"
"5.46663","4342.57","0.0455549","222.696","164"
"5.50329","4347.66","0.0458603","222.9568","165.1"
"5.53989","4352.1","0.0461654","223.185","166.2"
"5.5766","4356.72","0.0464712","223.421","167.3"
"5.61334","4361.48","0.0467775","223.666","168.4"
"5.64995","4366.38","0.0470829","223.917","169.5"
"5.68656","4370.34","0.047388","224.12","170.6"
"5.72326","4375.25","0.0476934","224.372","171.7"
"5.75991","4379.63","0.0479989","224.596","172.8"
"5.79661","4384.17","0.0483047","224.829","173.9"
"5.83322","4388.41","0.0486098","225.047","175"
"5.86987","4392.88","0.0489156","225.276","176.1"
"5.90662","4397.4","0.0492215","225.507","177.2"
"5.94328","4401.91","0.0495273","225.739","178.3"
"5.97988","4405.71","0.049832","225.934","179.4"
"6.01654","4409.4","0.0501374","226.123","180.5"
"6.05324","4413.73","0.0504433","226.345","181.6"
"6.08994","4416.07","0.0507491","226.465","182.7"
"6.12659","4420.73","0.0510546","226.704","183.8"
"6.16325","4425.35","0.05136","226.941","184.9"
"6.19995","4429.56","0.0516658","227.157","186"
"6.2366","4433.72","0.0519713","227.37","187.1"
"6.27326","4437.78","0.0522771","227.578","188.2"
"6.30991","4441.9","0.0525822","227.79","189.3"
"6.34656","4446.03","0.0528877","228.002","190.4"
"6.38331","4449.77","0.0531939","228.193","191.5"
"6.41997","4453.83","0.0534997","228.401","192.6"
"6.45657","4457.55","0.0538044","228.592","193.7"
"6.49323","4461.16","0.0541102","228.777","194.8"
"6.52997","4465.44","0.0544161","228.997","195.9"
"6.56663","4469.26","0.0547215","229.193","197"
"6.60328","4472.27","0.055027","229.347","198.1"
"6.63989","4476.05","0.0553324","229.541","199.2"
"6.67659","4479.73","0.0556379","229.73","200.3"
"6.71329","4483.1","0.0559437","229.903","201.4"
"6.7499","4486.9","0.0562492","230.098","202.5"
"6.78655","4490.24","0.0565542","230.269","203.6"
"6.82321","4493.89","0.0568601","230.456","204.7"
"6.85995","4497.66","0.0571659","230.649","205.8"
"6.89661","4500.96","0.0574714","230.818","206.9"
"6.93322","4503.89","0.0577764","230.969","208"
"6.96987","4507.29","0.0580823","231.143","209.1"
"7.00657","4511.13","0.0583877","231.34","210.2"
"7.04327","4514.17","0.0586935","231.496","211.3"
"7.07993","4517.68","0.058999","231.676","212.4"
"7.11658","4520.68","0.0593044","231.83","213.5"
"7.15328","4524.2","0.0596103","232.01","214.6"
"7.18994","4527.29","0.0599161","232.169","215.7"
"7.22659","4530.35","0.0602212","232.326","216.8"
"7.2632","4533.33","0.0605266","232.479","217.9"
"7.2999","4536.62","0.0608321","232.647","219"
"7.33664","4540.53","0.0611387","232.848","220.1"
"7.3733","4543.26","0.0614438","232.988","221.2"
"7.40991","4545.87","0.0617492","233.121","222.3"
"7.44661","4549.39","0.0620547","233.302","223.4"
"7.48331","4552.32","0.0623605","233.452","224.5"
"7.51996","4555.48","0.062666","233.614","225.6"
"7.55662","4558.38","0.0629714","233.7632","226.7"
"7.59322","4561.22","0.0632769","233.909","227.8"
"7.62992","4564.5","0.0635827","234.0768","228.9"
"7.66663","4567.38","0.0638882","234.225","230"
"7.70323","4570.2","0.0641932","234.3692","231.1"
"7.73989","4572.79","0.0644987","234.502","232.2"
"7.77659","4576.02","0.0648045","234.667","233.3"
"7.81329","4579.22","0.0651103","234.832","234.4"
"7.8499","4581.29","0.0654158","234.938","235.5"
"7.88655","4584","0.0657209","235.077","236.6"
"7.9232","4586.91","0.0660263","235.226","237.7"
"7.95995","4589.73","0.0663325","235.371","238.8"
"7.99661","4592.94","0.066638","235.536","239.9"
"8.03321","4595.42","0.0669434","235.663","241"
"8.06991","4597.77","0.0672493","235.783","242.1"
"8.10661","4600.91","0.0675551","235.944","243.2"
"8.14327","4603.28","0.0678606","236.066","244.3"
"8.17988","4605.6","0.0681652","236.1844","245.4"
"8.21653","4608.12","0.0684711","236.314","246.5"
"8.25328","4611.29","0.0687769","236.476","247.6"
"8.28998","4613.98","0.0690828","236.614","248.7"
"8.32663","4616.42","0.0693882","236.739","249.8"
"8.36324","4618.71","0.0696933","236.857","250.9"
"8.39994","4621.41","0.0699991","236.995","252"
"8.43664","4624.12","0.0703053","237.134","253.1"
"8.47329","4626.38","0.0706104","237.25","254.2"
"8.5099","4628.8","0.0709155","237.374","255.3"
"8.5466","4631.21","0.0712213","237.498","256.4"
"8.5833","4633.92","0.0715271","237.637","257.5"
"8.61991","4636.3","0.0718326","237.759","258.6"
"8.65652","4638.53","0.0721377","237.873","259.7"
"8.69322","4641.26","0.0724435","238.013","260.8"
"8.72992","4643.66","0.072749","238.137","261.9"
"8.76662","4645.79","0.0730548","238.246","263"
"8.80323","4648.07","0.0733602","238.362","264.1"
"8.83984","4650.17","0.0736653","238.47","265.2"
"8.87658","4652.62","0.0739711","238.596","266.3"
"8.91328","4655.33","0.074277","238.735","267.4"
"8.94989","4657.38","0.0745824","238.84","268.5"
"8.98659","4659.68","0.0748879","238.958","269.6"
"9.02329","4662.2","0.0751937","239.087","270.7"
"9.05999","4664.29","0.0754996","239.195","271.8"
"9.0966","4666.39","0.0758046","239.302","272.9"
"9.13321","4668.44","0.0761097","239.407","274"
"9.16991","4670.8","0.0764155","239.528","275.1"
"9.20661","4673.15","0.0767214","239.649","276.2"
"9.24331","4675.88","0.0770276","239.789","277.3"
"9.27992","4677.45","0.0773323","239.869","278.4"
"9.31662","4679.52","0.0776381","239.975","279.5"
"9.35327","4682.25","0.0779439","240.115","280.6"
"9.38997","4684.4","0.0782494","240.225","281.7"
"9.42658","4685.76","0.0785545","240.295","282.8"
"9.46324","4687.92","0.0788599","240.406","283.9"
"9.49994","4690.33","0.0791657","240.53","285"
"9.53664","4692.33","0.0794716","240.632","286.1"
"9.57324","4694.19","0.0797767","240.728","287.2"
"9.6099","4696.44","0.0800821","240.843","288.3"
"9.64655","4698.34","0.0803876","240.94","289.4"
"9.6833","4700.76","0.0806938","241.065","290.5"
"9.71995","4702.6","0.0809992","241.159","291.6"
"9.75656","4704.22","0.0813043","241.242","292.7"
"9.79322","4706.2","0.0816101","241.344","293.8"
"9.82992","4708.44","0.0819156","241.4584","294.9"
"9.86662","4710.26","0.0822214","241.552","296"
"9.90323","4712.31","0.0825265","241.657","297.1"
"9.93993","4714.18","0.0828323","241.753","298.2"
"9.97663","4716.39","0.0831382","241.866","299.3"
"10.0133","4718.13","0.083444","241.955","300.4"
"10.0499","4719.99","0.0837491","242.051","301.5"
"10.0865","4721.55","0.0840541","242.131","302.6"
"10.1232","4723.48","0.08436","242.23","303.7"
"10.1599","4726.02","0.0846662","242.36","304.8"
"10.1966","4727.62","0.0849716","242.442","305.9"
"10.2333","4729.29","0.0852771","242.527","307"
"10.27","4731.32","0.0855825","242.632","308.1"
"10.3067","4733.05","0.0858884","242.721","309.2"
"10.3433","4735.01","0.0861938","242.821","310.3"
"10.3799","4736.74","0.0864989","242.91","311.4"
"10.4166","4738.5","0.0868044","243","312.5"
"10.4533","4740.5","0.0871102","243.103","313.6"
"10.49","4742.13","0.087416","243.186","314.7"
"10.5266","4744.07","0.0877211","243.285","315.8"
"10.5632","4745.18","0.0880265","243.343","316.9"
"10.5999","4747.5","0.0883324","243.462","318"
"10.6366","4749.49","0.0886378","243.564","319.1"
"10.6732","4750.76","0.0889437","243.628","320.2"
"10.7099","4752.48","0.0892487","243.717","321.3"
"10.7465","4754.32","0.0895546","243.811","322.4"
"10.7832","4756.07","0.0898604","243.901","323.5"
"10.8199","4757.53","0.0901659","243.976","324.6"
"10.8566","4759.44","0.0904713","244.074","325.7"
"10.8932","4761.25","0.0907768","244.167","326.8"
"10.93","4763.2","0.091083","244.267","327.9"
"10.9667","4764.47","0.0913884","244.332","329"
"11.0032","4765.54","0.0916931","244.387","330.1"
"11.0399","4767.44","0.091999","244.484","331.2"
"11.0766","4769.92","0.0923048","244.611","332.3"
"11.1133","4771.08","0.0926102","244.671","333.4"
"11.15","4772.54","0.0929161","244.746","334.5"
"11.1866","4774.26","0.0932212","244.834","335.6"
"11.2233","4776.12","0.0935274","244.929","336.7"
"11.26","4777.81","0.0938328","245.016","337.8"
"11.2966","4779.28","0.0941383","245.091","338.9"
"11.3332","4780.32","0.0944433","245.145","340"
"11.3699","4782.33","0.0947488","245.248","341.1"
"11.4066","4784.19","0.095055","245.343","342.2"
"11.4433","4785.75","0.0953605","245.4232","343.3"
"11.4799","4786.59","0.0956655","245.466","344.4"
"11.5166","4788.27","0.095971","245.552","345.5"
"11.5533","4790.04","0.0962768","245.643","346.6"
"11.5899","4791.55","0.0965827","245.72","347.7"
"11.6266","4793.21","0.0968877","245.806","348.8"
"11.6632","4794.63","0.0971932","245.878","349.9"
"11.6999","4796.08","0.097499","245.9528","351"
"11.7366","4797.53","0.0978049","246.027","352.1"
"11.7732","4799.2","0.0981103","246.113","353.2"
"11.8099","4800.52","0.0984154","246.18","354.3"
"11.8466","4802.05","0.0987212","246.259","355.4"
"11.8833","4804.4","0.0990274","246.379","356.5"
"11.9199","4805.36","0.0993325","246.428","357.6"
"11.9566","4806.68","0.0996376","246.496","358.7"
"11.9932","4808.29","0.0999434","246.579","359.8"
"12.03","4809.61","0.100249","246.646","360.9"
"12.0666","4811.36","0.100555","246.736","362"
"12.1033","4812.75","0.10086","246.808","363.1"
"12.1399","4814.08","0.101166","246.876","364.2"
"12.1766","4815.79","0.101472","246.964","365.3"
"12.2133","4817.14","0.101777","247.033","366.4"
"12.2499","4818.45","0.102082","247.1","367.5"
"12.2865","4819.45","0.102388","247.151","368.6"
"12.3233","4821.54","0.102694","247.258","369.7"
"12.3599","4822.89","0.102999","247.327","370.8"
"12.3966","4823.74","0.103305","247.371","371.9"
"12.4332","4825.13","0.10361","247.443","373"
"12.4699","4826.48","0.103915","247.512","374.1"
"12.5066","4828.07","0.104222","247.593","375.2"
"12.5433","4829.24","0.104527","247.654","376.3"
"12.5799","4830.51","0.104832","247.719","377.4"
"12.6166","4831.72","0.105138","247.781","378.5"
"12.6533","4833.42","0.105444","247.868","379.6"
"12.6899","4834.69","0.105749","247.933","380.7"
"12.7266","4835.85","0.106054","247.992","381.8"
"12.7633","4837.34","0.10636","248.069","382.9"
"12.7999","4838.69","0.106666","248.138","384"
"12.8366","4839.66","0.106972","248.188","385.1"
"12.8733","4841.03","0.107277","248.258","386.2"
"12.9099","4842.29","0.107582","248.322","387.3"
"12.9466","4843.44","0.107888","248.381","388.4"
"12.9833","4845.28","0.108194","248.476","389.5"
"13.0199","4846.09","0.108499","248.517","390.6"
"13.0566","4847.43","0.108805","248.586","391.7"
"13.0933","4848.76","0.10911","248.654","392.8"
"13.13","4850.34","0.109416","248.736","393.9"
"13.1666","4851.29","0.109721","248.784","395"
"13.2033","4852.03","0.110027","248.822","396.1"
"13.2399","4853.72","0.110332","248.908","397.2"
"13.2766","4855.11","0.110638","248.98","398.3"
"13.3133","4856.36","0.110944","249.044","399.4"
"13.3499","4857.64","0.111249","249.11","400.5"
"13.3865","4858.32","0.111554","249.145","401.6"
"13.4233","4859.88","0.11186","249.225","402.7"
"13.4599","4861.35","0.112166","249.3","403.8"
"13.4966","4862.31","0.112471","249.349","404.9"
"13.5332","4863.09","0.112776","249.389","406"
"13.5699","4864.7","0.113082","249.472","407.1"
"13.6066","4866","0.113388","249.539","408.2"
"13.6432","4866.96","0.113693","249.588","409.3"
"13.6799","4868.07","0.113999","249.644","410.4"
"13.7166","4869.64","0.114304","249.725","411.5"
"13.7533","4870.83","0.11461","249.786","412.6"
"13.79","4871.94","0.114916","249.843","413.7"
"13.8266","4872.6","0.115221","249.877","414.8"
"13.8632","4873.94","0.115526","249.9456","415.9"
"13.8999","4875.46","0.115832","250.024","417"
"13.9366","4876.47","0.116138","250.075","418.1"
"13.9733","4877.41","0.116444","250.124","419.2"
"14.0099","4878.35","0.116749","250.172","420.3"
"14.0466","4880.22","0.117055","250.267","421.4"
"14.0833","4881.22","0.117361","250.319","422.5"
"14.12","4882.11","0.117666","250.365","423.6"
"14.1565","4883.04","0.117971","250.412","424.7"
"14.1932","4884.24","0.118277","250.474","425.8"
"14.2299","4885.6","0.118583","250.544","426.9"
"14.2666","4886.75","0.118888","250.603","428"
"14.3033","4887.74","0.119193","250.653","429.1"
"14.3399","4888.77","0.119499","250.706","430.2"
"14.3766","4890.21","0.119805","250.78","431.3"
"14.4133","4891.11","0.12011","250.826","432.4"
"14.4499","4891.83","0.120415","250.863","433.5"
"14.4865","4892.89","0.120721","250.917","434.6"
"14.5232","4894.29","0.121027","250.989","435.7"
"14.56","4895.41","0.121333","251.047","436.8"
"14.5966","4896.74","0.121638","251.115","437.9"
"14.6332","4897.27","0.121943","251.142","439"
"14.6699","4898.85","0.122249","251.223","440.1"
"14.7066","4900.11","0.122555","251.288","441.2"
"14.7433","4900.86","0.12286","251.326","442.3"
"14.7799","4901.72","0.123165","251.37","443.4"
"14.8166","4902.98","0.123471","251.435","444.5"
"14.8533","4904.29","0.123777","251.502","445.6"
"14.89","4904.96","0.124083","251.536","446.7"
"14.9266","4905.88","0.124388","251.584","447.8"
"14.9633","4907.09","0.124693","251.646","448.9"
"15","4908.72","0.125","251.729","450"
"15.0367","4909.78","0.125306","251.784","451.1"
"15.0732","4910.4","0.12561","251.816","452.2"
"15.1099","4911.07","0.125916","251.85","453.3"
"15.1466","4912.36","0.126221","251.916","454.4"
"15.1833","4913.73","0.126527","251.986","455.5"
"15.2199","4914.41","0.126832","252.021","456.6"
"15.2566","4915.38","0.127138","252.071","457.7"
"15.2932","4916.36","0.127444","252.121","458.8"
"15.3299","4917.1","0.127749","252.159","459.9"
"15.3666","4918.05","0.128055","252.208","461"
"15.4032","4919.01","0.12836","252.257","462.1"
"15.4399","4919.81","0.128665","252.298","463.2"
"15.4767","4921.35","0.128972","252.377","464.3"
"15.5133","4922.21","0.129277","252.421","465.4"
"15.5499","4922.96","0.129582","252.46","466.5"
"15.5866","4924.03","0.129888","252.515","467.6"
"15.6233","4925.29","0.130194","252.579","468.7"
"15.66","4926.25","0.130499","252.628","469.8"
"15.6966","4926.85","0.130804","252.659","470.9"
"15.7332","4927.77","0.13111","252.706","472"
"15.7699","4928.94","0.131416","252.766","473.1"
"15.8066","4929.86","0.131722","252.814","474.2"
"15.8433","4931.05","0.132027","252.875","475.3"
"15.8799","4931.7","0.132332","252.908","476.4"
"15.9166","4932.53","0.132638","252.95","477.5"
"15.9533","4934.41","0.132944","253.047","478.6"
"15.9899","4934.82","0.13325","253.068","479.7"
"16.0266","4935.21","0.133555","253.088","480.8"
"16.0632","4936.46","0.13386","253.152","481.9"
"16.0999","4937.33","0.134166","253.197","483"
"16.1366","4938.29","0.134471","253.246","484.1"
"16.1733","4939.15","0.134777","253.29","485.2"
"16.2099","4940.37","0.135082","253.352","486.3"
"16.2466","4941.27","0.135388","253.399","487.4"
"16.2833","4942.07","0.135694","253.439","488.5"
"16.3199","4942.93","0.135999","253.484","489.6"
"16.3565","4943.3","0.136304","253.503","490.7"
"16.3932","4944.72","0.13661","253.575","491.8"
"16.4299","4945.95","0.136916","253.639","492.9"
"16.4666","4946.48","0.137222","253.666","494"
"16.5032","4947.42","0.137527","253.714","495.1"
"16.5399","4948.49","0.137832","253.768","496.2"
"16.5766","4949.57","0.138138","253.824","497.3"
"16.6133","4950.07","0.138444","253.85","498.4"
"16.6499","4950.96","0.138749","253.896","499.5"
"16.6866","4951.79","0.139054","253.938","500.6"
"16.7233","4952.82","0.139361","253.991","501.7"
"16.76","4954.08","0.139666","254.055","502.8"
"16.7966","4954.27","0.139971","254.065","503.9"
"16.8333","4955.45","0.140277","254.125","505"
"16.8699","4956.76","0.140583","254.193","506.1"
"16.9067","4957.36","0.140889","254.224","507.2"
"16.9433","4957.83","0.141194","254.248","508.3"
"16.9799","4958.46","0.141499","254.28","509.4"
"17.0166","4959.35","0.141805","254.326","510.5"
"17.0532","4960.42","0.14211","254.38","511.6"
"17.0899","4961.2","0.142416","254.42","512.7"
"17.1266","4961.81","0.142721","254.452","513.8"
"17.1633","4962.9","0.143027","254.508","514.9"
"17.2","4964.24","0.143333","254.576","516"
"17.2366","4964.8","0.143638","254.605","517.1"
"17.2732","4965.01","0.143943","254.616","518.2"
"17.3099","4966.15","0.144249","254.675","519.3"
"17.3466","4967.33","0.144554","254.735","520.4"
"17.3833","4968.26","0.144861","254.7824","521.5"
"17.4199","4968.72","0.145166","254.806","522.6"
"17.4565","4969.56","0.145471","254.8492","523.7"
"17.4932","4970.27","0.145777","254.886","524.8"
"17.53","4971.43","0.146083","254.945","525.9"
"17.5666","4972.14","0.146388","254.982","527"
"17.6032","4972.69","0.146693","255.01","528.1"
"17.6399","4973.63","0.146999","255.058","529.2"
"17.6766","4975.18","0.147305","255.138","530.3"
"17.7133","4975.24","0.14761","255.14","531.4"
"17.7499","4976.17","0.147916","255.188","532.5"
"17.7866","4977","0.148221","255.231","533.6"
"17.8233","4977.75","0.148527","255.269","534.7"
"17.86","4979.06","0.148833","255.337","535.8"
"17.8966","4979.58","0.149138","255.363","536.9"
"17.9332","4980.03","0.149443","255.386","538"
"17.9699","4980.94","0.149749","255.433","539.1"
"18.0066","4982.4","0.150055","255.508","540.2"
"18.0432","4982.54","0.15036","255.515","541.3"
"18.0799","4983.27","0.150665","255.552","542.4"
"18.1166","4984.51","0.150972","255.616","543.5"
"18.1533","4985.15","0.151277","255.649","544.6"
"18.1899","4985.73","0.151582","255.679","545.7"
"18.2266","4986.43","0.151888","255.714","546.8"
"18.2632","4987.45","0.152193","255.767","547.9"
"18.2999","4988.3","0.152499","255.81","549"
"18.3366","4989.48","0.152805","255.871","550.1"
"18.3733","4989.74","0.15311","255.884","551.2"
"18.4099","4990.23","0.153416","255.909","552.3"
"18.4466","4991.67","0.153721","255.983","553.4"
"18.4833","4992.86","0.154027","256.044","554.5"
"18.5199","4992.6","0.154332","256.031","555.6"
"18.5566","4993.44","0.154638","256.074","556.7"
"18.5933","4994.58","0.154944","256.132","557.8"
"18.63","4995.54","0.155249","256.182","558.9"
"18.6666","4996.13","0.155555","256.212","560"
"18.7032","4996.92","0.15586","256.252","561.1"
"18.7399","4997.81","0.156166","256.298","562.2"
"18.7766","4998.81","0.156472","256.349","563.3"
"18.8133","4999.99","0.156777","256.41","564.4"
"18.8499","5000.06","0.157082","256.413","565.5"
"18.8866","5000.6","0.157388","256.441","566.6"
"18.9233","5001.74","0.157694","256.4996","567.7"
"18.9599","5002.27","0.157999","256.527","568.8"
"18.9966","5003.02","0.158305","256.565","569.9"
"19.0332","5003.89","0.15861","256.61","571"
"19.0699","5004.61","0.158916","256.647","572.1"
"19.1066","5005.59","0.159222","256.697","573.2"
"19.1432","5006.46","0.159527","256.741","574.3"
"19.1799","5006.39","0.159832","256.738","575.4"
"19.2165","5007.41","0.160138","256.79","576.5"
"19.2533","5008.45","0.160444","256.844","577.6"
"19.2899","5009.29","0.160749","256.886","578.7"
"19.3266","5009.4","0.161055","256.892","579.8"
"19.3632","5010.58","0.16136","256.953","580.9"
"19.3999","5011.38","0.161666","256.994","582"
"19.4366","5011.58","0.161971","257.004","583.1"
"19.4733","5012.93","0.162277","257.073","584.2"
"19.5099","5013.31","0.162582","257.093","585.3"
"19.5467","5014.06","0.162888","257.131","586.4"
"19.5833","5015.24","0.163194","257.192","587.5"
"19.6199","5015.6","0.163499","257.21","588.6"
"19.6566","5016.08","0.163804","257.235","589.7"
"19.6933","5017.04","0.164111","257.284","590.8"
"19.73","5017.89","0.164416","257.328","591.9"
"19.7666","5018.1","0.164722","257.338","593"
"19.8032","5018.8","0.165027","257.374","594.1"
"19.8399","5019.65","0.165332","257.418","595.2"
"19.8766","5020.24","0.165638","257.448","596.3"
"19.9133","5020.8","0.165944","257.477","597.4"
"19.9499","5021.99","0.166249","257.538","598.5"
"19.9866","5022.5","0.166555","257.564","599.6"
"20.0233","5023.47","0.16686","257.614","600.7"
"20.06","5024.07","0.167166","257.644","601.8"
"20.0966","5024.03","0.167471","257.642","602.9"
"20.1332","5024.82","0.167776","257.683","604"
"20.1699","5025.83","0.168082","257.735","605.1"
"20.2066","5026.61","0.168388","257.775","606.2"
"20.2433","5026.84","0.168694","257.787","607.3"
"20.2799","5027.55","0.168999","257.823","608.4"
"20.3166","5028.35","0.169305","257.864","609.5"
"20.3533","5028.99","0.16961","257.897","610.6"
"20.3899","5029.53","0.169916","257.9248","611.7"
"20.4265","5030","0.170221","257.949","612.8"
"20.4632","5030.83","0.170527","257.991","613.9"
"20.5","5032.23","0.170833","258.063","615"
"20.5366","5032.52","0.171138","258.078","616.1"
"20.5733","5032.71","0.171443","258.088","617.2"
"20.6099","5033.63","0.171749","258.135","618.3"
"20.6467","5034.94","0.172055","258.202","619.4"
"20.6833","5035.29","0.172361","258.22","620.5"
"20.72","5035.85","0.172666","258.249","621.6"
"20.7566","5036.45","0.172971","258.279","622.7"
"20.7933","5036.81","0.173277","258.298","623.8"
"20.83","5037.77","0.173583","258.347","624.9"
"20.8665","5038.28","0.173888","258.373","626"
"20.9032","5038.73","0.174193","258.396","627.1"
"20.9399","5039.91","0.174499","258.457","628.2"
"20.9766","5040.51","0.174805","258.488","629.3"
"21.0132","5040.96","0.17511","258.511","630.4"
"21.0498","5041.3","0.175415","258.528","631.5"
"21.0865","5042.24","0.175721","258.576","632.6"
"21.1232","5042.86","0.176027","258.608","633.7"
"21.16","5043.71","0.176333","258.652","634.8"
"21.1966","5044.38","0.176638","258.686","635.9"
"21.2333","5043.54","0.176943","258.643","637"
"21.27","5044.94","0.177249","258.715","638.1"
"21.3066","5045.83","0.177555","258.761","639.2"
"21.3432","5045.7","0.17786","258.754","640.3"
"21.3799","5046.69","0.178166","258.805","641.4"
"21.4166","5047.56","0.178471","258.849","642.5"
"21.4533","5048.35","0.178777","258.89","643.6"
"21.4899","5048.98","0.179083","258.922","644.7"
"21.5266","5049.3","0.179388","258.939","645.8"
"21.5632","5050.09","0.179694","258.979","646.9"
"21.6","5050.78","0.18","259.015","648"
"21.6366","5051.63","0.180305","259.058","649.1"
"21.6732","5051.93","0.18061","259.073","650.2"
"21.7099","5052.35","0.180916","259.095","651.3"
"21.7466","5053.33","0.181222","259.145","652.4"
"21.7833","5053.75","0.181527","259.166","653.5"
"21.8199","5053.88","0.181832","259.174","654.6"
"21.8566","5054.89","0.182138","259.225","655.7"
"21.8933","5055.65","0.182443","259.264","656.8"
"21.93","5056.06","0.182749","259.285","657.9"
"21.9666","5056.6","0.183054","259.313","659"
"22.0032","5057.41","0.18336","259.354","660.1"
"22.0399","5057.94","0.183665","259.381","661.2"
"22.0766","5058.82","0.183972","259.427","662.3"
"22.1132","5059.36","0.184277","259.454","663.4"
"22.1499","5059.39","0.184582","259.456","664.5"
"22.1866","5060.98","0.184888","259.537","665.6"
"22.2233","5061.33","0.185194","259.555","666.7"
"22.2599","5061.44","0.185499","259.561","667.8"
"22.2966","5061.78","0.185804","259.578","668.9"
"22.3332","5062.76","0.18611","259.629","670"
"22.37","5063.38","0.186416","259.66","671.1"
"22.4067","5064.26","0.186722","259.705","672.2"
"22.4433","5064.94","0.187027","259.74","673.3"
"22.4799","5065.06","0.187332","259.747","674.4"
"22.5166","5066.08","0.187638","259.799","675.5"
"22.5533","5066.69","0.187944","259.83","676.6"
"22.5899","5066.65","0.188249","259.828","677.7"
"22.6266","5067.19","0.188554","259.856","678.8"
"22.6633","5068.3","0.18886","259.913","679.9"
"22.6999","5069.01","0.189166","259.949","681"
"22.7366","5069.09","0.189472","259.953","682.1"
"22.7732","5069.49","0.189777","259.974","683.2"
"22.8099","5070.33","0.190082","260.017","684.3"
"22.8466","5070.68","0.190388","260.035","685.4"
"22.8833","5071.68","0.190694","260.086","686.5"
"22.9199","5071.96","0.190999","260.1","687.6"
"22.9565","5072.42","0.191304","260.124","688.7"
"22.9933","5073.35","0.19161","260.172","689.8"
"23.0299","5074.02","0.191916","260.206","690.9"
"23.0666","5074.33","0.192221","260.222","692"
"23.1032","5075.15","0.192527","260.264","693.1"
"23.1399","5075.8","0.192833","260.298","694.2"
"23.1766","5076.52","0.193139","260.334","695.3"
"23.2132","5076.68","0.193444","260.343","696.4"
"23.2499","5077.14","0.193749","260.366","697.5"
"23.2865","5078.06","0.194055","260.413","698.6"
"23.3233","5078.75","0.19436","260.448","699.7"
"23.36","5079.5","0.194666","260.487","700.8"
"23.3965","5079.74","0.194971","260.5","701.9"
"23.4333","5080.06","0.195277","260.516","703"
"23.47","5081.43","0.195583","260.586","704.1"
"23.5066","5081.37","0.195888","260.583","705.2"
"23.5433","5081.96","0.196193","260.614","706.3"
"23.5799","5082.73","0.196499","260.653","707.4"
"23.6166","5083.29","0.196805","260.681","708.5"
"23.6533","5084.34","0.197111","260.735","709.6"
"23.6899","5084.28","0.197416","260.732","710.7"
"23.7265","5084.75","0.197721","260.757","711.8"
"23.7632","5085.5","0.198027","260.795","712.9"
"23.7999","5086.62","0.198333","260.852","714"
"23.8366","5086.75","0.198638","260.859","715.1"
"23.8732","5086.88","0.198943","260.866","716.2"
"23.9099","5087.65","0.199249","260.905","717.3"
"23.9466","5088.33","0.199555","260.94","718.4"
"23.9833","5088.99","0.19986","260.974","719.5"
"24.0199","5089.69","0.200165","261.01","720.6"
"24.0566","5090.08","0.200471","261.03","721.7"
"24.0933","5090.76","0.200777","261.065","722.8"
"24.13","5091.46","0.201083","261.101","723.9"
"24.1666","5091.57","0.201388","261.106","725"
"24.2032","5092.04","0.201693","261.13","726.1"
"24.2399","5093","0.201999","261.179","727.2"
"24.2766","5093.79","0.202305","261.22","728.3"
"24.3133","5094","0.20261","261.231","729.4"
"24.3499","5094.72","0.202916","261.268","730.5"
"24.3866","5095.25","0.203222","261.295","731.6"
"24.4233","5095.64","0.203527","261.315","732.7"
"24.4599","5096.73","0.203833","261.371","733.8"
"24.4965","5097.2","0.204138","261.395","734.9"
"24.5332","5097.37","0.204443","261.404","736"
"24.5699","5098.38","0.20475","261.455","737.1"
"24.6066","5098.72","0.205055","261.473","738.2"
"24.6432","5099.16","0.20536","261.495","739.3"
"24.6799","5099.55","0.205666","261.516","740.4"
"24.7166","5100.54","0.205971","261.566","741.5"
"24.7533","5101","0.206277","261.59","742.6"
"24.7899","5101.62","0.206582","261.622","743.7"
"24.8265","5101.78","0.206888","261.63","744.8"
"24.8632","5102.32","0.207193","261.657","745.9"
"24.9","5103.27","0.207499","261.706","747"
"24.9366","5103.8","0.207804","261.733","748.1"
"24.9732","5103.85","0.20811","261.736","749.2"
"25.0099","5104.9","0.208416","261.79","750.3"
"25.0466","5105.64","0.208722","261.828","751.4"
"25.0833","5105.93","0.209027","261.843","752.5"
"25.1199","5106.14","0.209332","261.853","753.6"
"25.1566","5106.75","0.209638","261.885","754.7"
"25.1933","5107.38","0.209943","261.917","755.8"
"25.23","5107.93","0.210249","261.945","756.9"
"25.2666","5108.69","0.210555","261.984","758"
"25.3033","5109.09","0.21086","262.005","759.1"
"25.34","5109.4","0.211166","262.02","760.2"
"25.3766","5110.24","0.211472","262.063","761.3"
"25.4133","5110.47","0.211777","262.076","762.4"
"25.4499","5110.73","0.212082","262.089","763.5"
"25.4866","5111.84","0.212388","262.146","764.6"
"25.5233","5112.51","0.212694","262.18","765.7"
"25.5599","5112.71","0.212999","262.19","766.8"
"25.5965","5112.79","0.213305","262.194","767.9"
"25.6332","5113.82","0.21361","262.247","769"
"25.6699","5114.19","0.213916","262.266","770.1"
"25.7066","5115.24","0.214222","262.32","771.2"
"25.7432","5115.24","0.214526","262.32","772.3"
"25.7799","5115.65","0.214832","262.341","773.4"
"25.8166","5116.34","0.215138","262.376","774.5"
"25.8533","5116.9","0.215443","262.405","775.6"
"25.8899","5117.1","0.215749","262.416","776.7"
"25.9266","5117.73","0.216054","262.448","777.8"
"25.9633","5118.51","0.21636","262.488","778.9"
"26","5119.27","0.216666","262.526","780"
"26.0366","5119.24","0.216971","262.525","781.1"
"26.0732","5119.86","0.217277","262.557","782.2"
"26.1099","5120.2","0.217582","262.5744","783.3"
"26.1466","5120.82","0.217888","262.606","784.4"
"26.1833","5121.53","0.218194","262.643","785.5"
"26.2199","5121.59","0.218499","262.645","786.6"
"26.2566","5122.3","0.218805","262.682","787.7"
"26.2933","5123.08","0.219111","262.722","788.8"
"26.33","5123.53","0.219416","262.745","789.9"
"26.3666","5123.68","0.219721","262.753","791"
"26.4032","5124.04","0.220027","262.771","792.1"
"26.4399","5124.78","0.220332","262.809","793.2"
"26.4766","5125.25","0.220638","262.833","794.3"
"26.5133","5125.37","0.220944","262.839","795.4"
"26.5499","5126.04","0.221249","262.874","796.5"
"26.5866","5126.2","0.221554","262.882","797.6"
"26.6233","5126.98","0.221861","262.922","798.7"
"26.6599","5127.47","0.222166","262.947","799.8"
"26.6965","5127.67","0.222471","262.957","800.9"
"26.7332","5128.55","0.222777","263.003","802"
"26.7699","5128.8","0.223082","263.0152","803.1"
"26.8066","5129.24","0.223388","263.038","804.2"
"26.8432","5129.6","0.223693","263.057","805.3"
"26.8799","5130.36","0.223999","263.095","806.4"
"26.9166","5130.53","0.224305","263.104","807.5"
"26.9533","5131.39","0.224611","263.148","808.6"
"26.9899","5131.78","0.224916","263.168","809.7"
"27.0266","5132.08","0.225221","263.184","810.8"
"27.0633","5132.73","0.225527","263.217","811.9"
"27.1","5133.37","0.225833","263.25","813"
"27.1366","5133.26","0.226138","263.244","814.1"
"27.1733","5133.57","0.226444","263.26","815.2"
"27.21","5134.37","0.226749","263.301","816.3"
"27.2467","5134.83","0.227055","263.325","817.4"
"27.2833","5135.21","0.22736","263.344","818.5"
"27.3199","5135.45","0.227666","263.356","819.6"
"27.3565","5135.8","0.227971","263.375","820.7"
"27.3932","5136.45","0.228277","263.408","821.8"
"27.43","5137.38","0.228583","263.455","822.9"
"27.4666","5137.32","0.228888","263.452","824"
"27.5032","5137.85","0.229193","263.48","825.1"
"27.5399","5138.55","0.229499","263.515","826.2"
"27.5766","5138.75","0.229805","263.526","827.3"
"27.6132","5139.02","0.23011","263.54","828.4"
"27.6499","5139.6","0.230415","263.569","829.5"
"27.6866","5140.28","0.230721","263.604","830.6"
"27.7233","5140.58","0.231027","263.619","831.7"
"27.7599","5140.56","0.231332","263.619","832.8"
"27.7966","5141.32","0.231638","263.657","833.9"
"27.8332","5141.69","0.231943","263.677","835"
"27.87","5142.42","0.232249","263.714","836.1"
"27.9066","5142.89","0.232555","263.738","837.2"
"27.9432","5142.8","0.23286","263.733","838.3"
"27.9799","5143.55","0.233165","263.772","839.4"
"28.0166","5143.83","0.233471","263.786","840.5"
"28.0533","5144.17","0.233777","263.803","841.6"
"28.0899","5144.55","0.234083","263.823","842.7"
"28.1266","5145.07","0.234388","263.85","843.8"
"28.1633","5145.85","0.234694","263.89","844.9"
"28.2","5146.16","0.235","263.906","846"
"28.2366","5146.5","0.235305","263.923","847.1"
"28.2732","5146.64","0.23561","263.93","848.2"
"28.3099","5147.33","0.235916","263.966","849.3"
"28.3466","5148.14","0.236221","264.007","850.4"
"28.3833","5148.4","0.236527","264.021","851.5"
"28.4199","5148.18","0.236832","264.009","852.6"
"28.4566","5148.88","0.237138","264.045","853.7"
"28.4932","5149.375","0.237444","264.071","854.8"
"28.5299","5149.81","0.237749","264.093","855.9"
"28.5666","5150.15","0.238054","264.11","857"
"28.6032","5150.02","0.23836","264.104","858.1"
"28.64","5150.55","0.238666","264.131","859.2"
"28.6767","5151.33","0.238972","264.171","860.3"
"28.7132","5150.91","0.239277","264.149","861.4"
"28.7499","5151.19","0.239582","264.163","862.5"
"28.7866","5152.13","0.239888","264.212","863.6"
"28.8233","5152.76","0.240194","264.244","864.7"
"28.86","5152.7","0.240499","264.2412","865.8"
"28.8966","5152.86","0.240804","264.249","866.9"
"28.9332","5153.44","0.24111","264.279","868"
"28.97","5153.62","0.241416","264.2884","869.1"
"29.0066","5154.38","0.241722","264.327","870.2"
"29.0432","5154.71","0.242027","264.344","871.3"
"29.0799","5155.21","0.242332","264.37","872.4"
"29.1166","5155.82","0.242639","264.401","873.5"
"29.1533","5156.27","0.242944","264.424","874.6"
"29.1899","5155.93","0.243249","264.407","875.7"
"29.2266","5156.21","0.243554","264.421","876.8"
"29.2633","5156.64","0.24386","264.443","877.9"
"29.3","5156.64","0.244166","264.443","879"
"29.3366","5157.12","0.244471","264.468","880.1"
"29.3732","5157.42","0.244776","264.483","881.2"
"29.4099","5157.71","0.245082","264.498","882.3"
"29.4466","5158.39","0.245388","264.533","883.4"
"29.4832","5158.63","0.245694","264.545","884.5"
"29.5199","5158.98","0.245999","264.563","885.6"
"29.5565","5159.29","0.246304","264.579","886.7"
"29.5933","5159.92","0.24661","264.611","887.8"
"29.6299","5160.06","0.246916","264.619","888.9"
"29.6665","5160.19","0.247221","264.625","890"
"29.7032","5160.89","0.247527","264.661","891.1"
"29.7399","5161.43","0.247833","264.689","892.2"
"29.7766","5161.69","0.248138","264.702","893.3"
"29.8133","5162.11","0.248443","264.7236","894.4"
"29.8499","5162.09","0.248749","264.7224","895.5"
"29.8866","5162.96","0.249055","264.767","896.6"
"29.9233","5163.21","0.249361","264.78","897.7"
"29.9599","5163.8","0.249666","264.81","898.8"
"29.9966","5163.94","0.249971","264.818","899.9"
"30.0333","5164.5","0.250277","264.846","901"
"30.07","5165.08","0.250583","264.876","902.1"
"30.1066","5165.17","0.250888","264.88","903.2"
"30.1432","5165.71","0.251194","264.908","904.3"
"30.1799","5166.25","0.251499","264.936","905.4"
"30.2166","5166.54","0.251805","264.951","906.5"
"30.2532","5166.86","0.25211","264.967","907.6"
"30.2899","5166.86","0.252415","264.967","908.7"
"30.3266","5167.39","0.252721","264.994","909.8"
"30.3633","5168.21","0.253027","265.036","910.9"
"30.4","5168.42","0.253333","265.047","912"
"30.4366","5168.42","0.253638","265.047","913.1"
"30.4732","5168.52","0.253943","265.052","914.2"
"30.5099","5169.35","0.254249","265.095","915.3"
"30.5466","5169.7","0.254555","265.113","916.4"
"30.5833","5169.96","0.25486","265.126","917.5"
"30.6199","5170.17","0.255165","265.137","918.6"
"30.6566","5170.65","0.255471","265.161","919.7"
"30.6933","5171.36","0.255777","265.198","920.8"
"30.7299","5171.59","0.256082","265.21","921.9"
"30.7666","5171.66","0.256388","265.213","923"
"30.8032","5172.1","0.256693","265.236","924.1"
"30.8399","5172.52","0.257","265.257","925.2"
"30.8766","5173.05","0.257305","265.2848","926.3"
"30.9133","5170.96","0.25761","265.178","927.4"
"30.95","5172.07","0.257916","265.234","928.5"
"30.9866","5172.96","0.258222","265.28","929.6"
"31.0234","5173.25","0.258528","265.295","930.7"
"31.06","5173.78","0.258833","265.322","931.8"
"31.0965","5173.63","0.259138","265.315","932.9"
"31.1333","5174.06","0.259444","265.336","934"
"31.1699","5174.5","0.259749","265.359","935.1"
"31.2066","5174.62","0.260054","265.365","936.2"
"31.2432","5174.88","0.26036","265.378","937.3"
"31.2799","5175.69","0.260666","265.42","938.4"
"31.3166","5176.14","0.260972","265.443","939.5"
"31.3532","5176.43","0.261277","265.458","940.6"
"31.3899","5176.54","0.261582","265.464","941.7"
"31.4265","5176.83","0.261888","265.4784","942.8"
"31.4633","5177.14","0.262193","265.494","943.9"
"31.5","5178.13","0.2625","265.545","945"
"31.5366","5178.23","0.262805","265.55","946.1"
"31.5732","5177.51","0.26311","265.514","947.2"
"31.6099","5178.11","0.263416","265.544","948.3"
"31.6466","5178.84","0.263721","265.581","949.4"
"31.6833","5179.26","0.264027","265.603","950.5"
"31.7199","5178.92","0.264332","265.586","951.6"
"31.7566","5179.99","0.264638","265.64","952.7"
"31.7933","5180.08","0.264944","265.645","953.8"
"31.8299","5180.22","0.265249","265.652","954.9"
"31.8666","5180.88","0.265554","265.686","956"
"31.9032","5180.92","0.26586","265.688","957.1"
"31.94","5181.46","0.266166","265.716","958.2"
"31.9767","5182.06","0.266472","265.747","959.3"
"32.0132","5182.01","0.266777","265.744","960.4"
"32.0499","5181.83","0.267082","265.735","961.5"
"32.0866","5182.37","0.267388","265.763","962.6"
"32.1233","5182.63","0.267694","265.776","963.7"
"32.1599","5181.82","0.267999","265.734","964.8"
"32.1966","5182.4","0.268304","265.764","965.9"
"32.2333","5182.75","0.26861","265.782","967"
"32.27","5182.88","0.268916","265.789","968.1"
"32.3066","5182.85","0.269221","265.787","969.2"
"32.3432","5183.37","0.269526","265.814","970.3"
"32.3799","5183.64","0.269832","265.828","971.4"
"32.4166","5184.28","0.270138","265.861","972.5"
"32.4533","5183.98","0.270444","265.845","973.6"
"32.4899","5183.33","0.270749","265.812","974.7"
"32.5266","5183.48","0.271055","265.82","975.8"
"32.5632","5183.53","0.27136","265.822","976.9"
"32.5999","5183.92","0.271666","265.842","978"
"32.6366","5184.22","0.271971","265.857","979.1"
"32.6732","5184.54","0.272277","265.874","980.2"
"32.71","5185.3","0.272583","265.913","981.3"
"32.7467","5185.4","0.272888","265.918","982.4"
"32.7833","5186.15","0.273193","265.956","983.5"
"32.8199","5185.41","0.273499","265.918","984.6"
"32.8566","5186.41","0.273805","265.97","985.7"
"32.8933","5186.71","0.274111","265.985","986.8"
"32.93","5186.95","0.274416","265.997","987.9"
"32.9666","5186.72","0.274721","265.985","989"
"33.0032","5187.09","0.275027","266.005","990.1"
"33.0399","5187.55","0.275332","266.028","991.2"
"33.0766","5187.91","0.275638","266.047","992.3"
"33.1132","5188.09","0.275943","266.056","993.4"
"33.1499","5188.22","0.276249","266.0624","994.5"
"33.1866","5188.18","0.276555","266.061","995.6"
"33.2233","5188.38","0.27686","266.071","996.7"
"33.2599","5188.17","0.277166","266.06","997.8"
"33.2965","5188.49","0.277471","266.076","998.9"
"33.3332","5189.2","0.277777","266.113","1000"
"33.3699","5189.49","0.278083","266.1276","1001.1"
"33.4066","5189.88","0.278388","266.148","1002.2"
"33.4433","5189.79","0.278694","266.143","1003.3"
"33.4799","5189.94","0.278999","266.151","1004.4"
"33.5166","5190.42","0.279305","266.176","1005.5"
"33.5533","5190.32","0.27961","266.17","1006.6"
"33.5899","5190.6","0.279915","266.185","1007.7"
"33.6265","5190.78","0.280221","266.194","1008.8"
"33.6633","5191.49","0.280527","266.2304","1009.9"
"33.6999","5191.89","0.280833","266.251","1011"
"33.7366","5191.48","0.281138","266.23","1012.1"
"33.7733","5192.3","0.281443","266.272","1013.2"
"33.81","5192.64","0.281749","266.289","1014.3"
"33.8467","5193.07","0.282055","266.311","1015.4"
"33.8833","5193.17","0.28236","266.317","1016.5"
"33.9199","5192.87","0.282666","266.301","1017.6"
"33.9566","5192.97","0.282971","266.306","1018.7"
"33.9933","5193.53","0.283277","266.335","1019.8"
"34.0299","5193.82","0.283582","266.35","1020.9"
"34.0665","5193.74","0.283887","266.345","1022"
"34.1032","5193.94","0.284194","266.356","1023.1"
"34.14","5194.74","0.284499","266.397","1024.2"
"34.1766","5194.65","0.284804","266.392","1025.3"
"34.2132","5194.67","0.28511","266.393","1026.4"
"34.2498","5193.89","0.285415","266.353","1027.5"
"34.2866","5194.01","0.285721","266.36","1028.6"
"34.3232","5194.1","0.286027","266.364","1029.7"
"34.3599","5194.72","0.286333","266.396","1030.8"
"34.3966","5194.79","0.286638","266.399","1031.9"
"34.4333","5195.01","0.286944","266.4108","1033"
"34.47","5194.51","0.287249","266.385","1034.1"
"34.5066","5193.72","0.287554","266.345","1035.2"
"34.5432","5193.6","0.28786","266.339","1036.3"
"34.5799","5193.86","0.288166","266.352","1037.4"
"34.6166","5194.74","0.288471","266.397","1038.5"
"34.6533","5194.625","0.288777","266.391","1039.6"
"34.6899","5194.9","0.289082","266.405","1040.7"
"34.7266","5194.72","0.289388","266.396","1041.8"
"34.7633","5195.16","0.289694","266.418","1042.9"
"34.8","5195.47","0.289999","266.434","1044"
"34.8366","5195.19","0.290305","266.42","1045.1"
"34.8732","5193.68","0.29061","266.343","1046.2"
"34.9099","5192.4","0.290916","266.277","1047.3"
"34.9466","5191.45","0.291221","266.228","1048.4"
"34.9832","5190.16","0.291526","266.162","1049.5"
"35.0199","5190.29","0.291832","266.169","1050.6"
"35.0566","5190.65","0.292138","266.1872","1051.7"
"35.0933","5190.78","0.292444","266.194","1052.8"
"35.1299","5191.06","0.292749","266.208","1053.9"
"35.1665","5190.76","0.293054","266.193","1055"
"35.2032","5190.62","0.29336","266.186","1056.1"
"35.2399","5190.2","0.293666","266.164","1057.2"
"35.2766","5188.38","0.293972","266.071","1058.3"
"35.3132","5185.16","0.294277","265.906","1059.4"
"35.3499","5184.67","0.294582","265.881","1060.5"
"35.3866","5185.14","0.294888","265.905","1061.6"
"35.4232","5184.69","0.295194","265.882","1062.7"
"35.4599","5182.6","0.295499","265.7744","1063.8"
"35.4966","5181.07","0.295804","265.696","1064.9"
"35.5333","5167.68","0.29611","265.009","1066"
"35.57","5153.14","0.296416","264.263","1067.1"
"35.6066","5141.07","0.296721","263.644","1068.2"
"35.6433","5119.7","0.297027","262.549","1069.3"
"35.6799","5100.01","0.297333","261.539","1070.4"
"35.7167","5092.41","0.297638","261.149","1071.5"
"35.7533","5058.1","0.297944","259.39","1072.6"
"35.7899","2619.99","0.298249","134.358","1073.7"
"35.8266","2650.68","0.298555","135.932","1074.8"
"35.8633","2669.81","0.29886","136.913","1075.9"
"35.8999","2681.74","0.299166","137.525","1077"
"35.9366","2689.56","0.299471","137.926","1078.1"
"35.9732","2694.77","0.299777","138.193","1079.2"
"36.0099","2700.03","0.300082","138.463","1080.3"
"36.0466","2704.44","0.300388","138.689","1081.4"
"36.0833","2707.96","0.300693","138.87","1082.5"
"36.1199","2711.31","0.300999","139.042","1083.6"
"36.1566","2714.06","0.301304","139.182","1084.7"
"36.1933","2714.09","0.30161","139.184","1085.8"
"36.2299","2715.13","0.301916","139.237","1086.9"
"36.2666","2716.43","0.302221","139.304","1088"
"36.3033","2715.26","0.302527","139.244","1089.1"
"36.34","2716.1","0.302833","139.287","1090.2"
"36.3766","2717.04","0.303138","139.335","1091.3"
"36.4132","2717.87","0.303443","139.378","1092.4"
"36.4499","2716.41","0.303749","139.303","1093.5"
"36.4866","2715.14","0.304055","139.238","1094.6"
"36.5233","2715.97","0.304361","139.28","1095.7"
"36.5599","2716.11","0.304666","139.288","1096.8"
"36.5966","2716.17","0.304971","139.291","1097.9"
"36.6333","2716.62","0.305277","139.314","1099"
"36.67","2716.93","0.305583","139.33","1100.1"
"36.7066","2716.55","0.305888","139.31","1101.2"
"36.7433","2716.52","0.306193","139.309","1102.3"
"36.7799","2712.72","0.306499","139.114","1103.4"
"36.8166","2712.36","0.306805","139.095","1104.5"
"36.8533","2707.28","0.30711","138.835","1105.6"
"36.8899","2700.96","0.307415","138.511","1106.7"
"36.9266","2696.37","0.307721","138.275","1107.8"
"36.9633","2683.23","0.308027","137.601","1108.9"
"36.9999","2678.97","0.308333","137.383","1110"
"37.0365","2678.17","0.308637","137.342","1111.1"
"37.0732","2676.52","0.308943","137.258","1112.2"
"37.1099","2675.04","0.309249","137.181","1113.3"
"37.1466","2666.85","0.309555","136.762","1114.4"
"37.1832","2663.7","0.30986","136.6","1115.5"
"37.2199","2619.9","0.310165","134.354","1116.6"
"37.2567","2536.84","0.310472","130.095","1117.7"
"37.2933","1329.2","0.310778","68.1643","1118.8"
"37.2958","-125.396","0.310798","-6.43055","1118.87"