File: experimental_data/tensile_specimen_test_data/tensile_test_data/20250311/SSS 2 03-11-25 12 36 06 下午/数采：横梁, … - (实时值).csv
"文件路径: C:\Users\Lenovo\Desktop\Wayne\20250311\SSS 2 03-11-25 12 36 06 下午\数采：横梁, … - (实时值).csv   "
"试验: MTS EM 拉伸试验-W 2"
"试验运行: SSS 2"
"日期: 2025/3/11 11:51:51"
""
""
"横梁 ","力 ","应变 ","应力 ","时间 "
"mm","N","mm/mm","N/mm²","sec"
"0.00265475","1812.61","2.17348e-05","92.95424","0.1"
"0.0231941","1863.51","0.000193284","95.5647","0.7"
"0.0432211","1905.44","0.000360176","97.715","1.3"
"0.0632016","1926.79","0.00052668","98.81","1.9"
"0.0832286","1935.39","0.000693572","99.2506","2.5"
"0.103302","1940","0.000860464","99.4874","3.1"
"0.123283","1943.12","0.00102736","99.6473","3.7"
"0.143263","1945.98","0.00119386","99.7937","4.3"
"0.163244","1948.58","0.00136036","99.92704","4.9"
"0.183224","1951.2","0.00152648","100.062","5.5"
"0.203251","1953.66","0.00169337","100.188","6.1"
"0.223278","1956.53","0.00186026","100.335","6.7"
"0.243259","1958.91","0.00202677","100.457","7.3"
"0.263332","1961.82","0.00219443","100.606","7.9"
"0.283266","1964.1","0.00236016","100.723","8.5"
"0.303293","1966.85","0.00252705","100.864","9.1"
"0.32318","1969.23","0.00269317","100.986","9.7"
"0.343254","1971.62","0.00286006","101.109","10.3"
"0.363281","1974.08","0.00302695","101.235","10.9"
"0.383308","1976.65","0.00319385","101.366","11.5"
"0.403288","1979.46","0.00336035","101.511","12.1"
"0.423315","1981.7","0.00352724","101.626","12.7"
"0.443203","1984","0.00369336","101.744","13.3"
"0.46323","1986.37","0.00385986","101.865","13.9"
"0.483257","1988.82","0.00402675","101.991","14.5"
"0.503284","1991.31","0.00419364","102.118","15.1"
"0.523311","1993.6","0.00436054","102.236","15.7"
"0.543291","1995.94","0.00452704","102.3558","16.3"
"0.563272","1998.34","0.00469354","102.479","16.9"
"0.583252","2000.54","0.00486044","102.592","17.5"
"0.603233","2002.7","0.00502655","102.702","18.1"
"0.623213","2004.96","0.00519344","102.818","18.7"
"0.643333","2007.78","0.00536072","102.963","19.3"
"0.663267","2009.86","0.00552723","103.07","19.9"
"0.683341","2012.01","0.00569412","103.18","20.5"
"0.703228","2014.32","0.00586023","103.298","21.1"
"0.723255","2016.3","0.00602713","103.4","21.7"
"0.743236","2018.47","0.00619324","103.511","22.3"
"0.763263","2020.75","0.00636013","103.628","22.9"
"0.783243","2022.91","0.00652664","103.739","23.5"
"0.803317","2025.47","0.00669431","103.87","24.1"
"0.823251","2027.27","0.00686042","103.962","24.7"
"0.843278","2029.38","0.00702692","104.071","25.3"
"0.863258","2031.56","0.00719343","104.183","25.9"
"0.883192","2033.68","0.00735993","104.291","26.5"
"0.903265","2036","0.00752682","104.41","27.1"
"0.923246","2037.85","0.00769372","104.505","27.7"
"0.943273","2040.05","0.00786061","104.6178","28.3"
"0.963347","2041.5","0.0080275","104.692","28.9"
"0.983234","2043.78","0.00819361","104.809","29.5"
"1.00321","2045.76","0.00836012","104.911","30.1"
"1.02324","2047.88","0.00852662","105.019","30.7"
"1.04327","2049.91","0.00869351","105.124","31.3"
"1.0633","2051.97","0.00886079","105.229","31.9"
"1.08328","2053.97","0.00902691","105.332","32.5"
"1.1033","2055.79","0.00919419","105.425","33.1"
"1.12324","2057.66","0.00935992","105.521","33.7"
"1.14326","2059.64","0.00952681","105.623","34.3"
"1.1632","2061.5","0.00969293","105.718","34.9"
"1.18327","2063.59","0.00986059","105.825","35.5"
"1.20325","2065.45","0.0100271","105.92","36.1"
"1.22333","2067.41","0.010194","106.021","36.7"
"1.24326","2069.16","0.0103605","106.111","37.3"
"1.26324","2070.87","0.0105266","106.198","37.9"
"1.28327","2072.66","0.0106935","106.29","38.5"
"1.3032","2074.5","0.01086","106.385","39.1"
"1.32323","2076.37","0.0110269","106.48","39.7"
"1.3433","2078.35","0.0111942","106.582","40.3"
"1.36328","2080.14","0.0113603","106.674","40.9"
"1.38331","2081.95","0.0115272","106.767","41.5"
"1.40324","2083.72","0.0116933","106.857","42.1"
"1.42322","2085.45","0.0118602","106.946","42.7"
"1.44325","2087.2","0.0120267","107.036","43.3"
"1.46323","2088.75","0.0121932","107.115","43.9"
"1.4833","2090.69","0.0123605","107.215","44.5"
"1.50328","2092.4","0.012527","107.303","45.1"
"1.52331","2094.06","0.0126939","107.388","45.7"
"1.54325","2095.79","0.01286","107.476","46.3"
"1.56327","2097.26","0.0130269","107.552","46.9"
"1.58321","2098.88","0.013193","107.635","47.5"
"1.60328","2100.64","0.0133603","107.725","48.1"
"1.62326","2102.34","0.0135272","107.812","48.7"
"1.64329","2104.17","0.0136941","107.906","49.3"
"1.66327","2105.91","0.0138606","107.996","49.9"
"1.68325","2107.12","0.0140267","108.058","50.5"
"1.70323","2108.57","0.0141932","108.132","51.1"
"1.72326","2110.01","0.0143601","108.206","51.7"
"1.74324","2111.71","0.014527","108.293","52.3"
"1.76331","2113.3","0.0146939","108.374","52.9"
"1.78329","2114.9","0.0148604","108.456","53.5"
"1.80327","2116.62","0.0150269","108.545","54.1"
"1.82325","2117.89","0.0151934","108.61","54.7"
"1.84323","2119.2","0.0153599","108.677","55.3"
"1.86326","2120.81","0.0155268","108.759","55.9"
"1.88329","2122.14","0.0156937","108.828","56.5"
"1.90331","2123.9","0.0158606","108.918","57.1"
"1.92329","2125.44","0.0160271","108.997","57.7"
"1.94327","2126.78","0.0161939","109.065","58.3"
"1.96321","2128.03","0.0163601","109.13","58.9"
"1.98323","2129.48","0.016527","109.204","59.5"
"2.00322","2131.15","0.0166931","109.29","60.1"
"2.02329","2132.39","0.0168603","109.353","60.7"
"2.04332","2133.82","0.0170272","109.427","61.3"
"2.0633","2135.13","0.0171937","109.494","61.9"
"2.08328","2135.99","0.0173602","109.538","62.5"
"2.10326","2137.75","0.0175268","109.628","63.1"
"2.12319","2139.04","0.0176933","109.694","63.7"
"2.14326","2140.38","0.0178601","109.7632","64.3"
"2.16329","2141.93","0.018027","109.843","64.9"
"2.18327","2143.21","0.0181939","109.908","65.5"
"2.2033","2144.68","0.0183604","109.983","66.1"
"2.22328","2145.93","0.0185269","110.048","66.7"
"2.24326","2146.95","0.0186934","110.1","67.3"
"2.26324","2148.33","0.0188599","110.171","67.9"
"2.28327","2149.87","0.0190268","110.25","68.5"
"2.30329","2151.17","0.0191937","110.317","69.1"
"2.32332","2152.62","0.0193606","110.391","69.7"
"2.34326","2153.79","0.0195271","110.451","70.3"
"2.36328","2155.03","0.019694","110.514","70.9"
"2.38322","2156.1","0.0198597","110.569","71.5"
"2.40324","2157.16","0.0200266","110.624","72.1"
"2.42322","2158.49","0.0201935","110.692","72.7"
"2.4433","2159.84","0.0203604","110.761","73.3"
"2.46332","2161.03","0.0205273","110.822","73.9"
"2.48326","2162.26","0.0206938","110.885","74.5"
"2.50324","2163.32","0.0208599","110.939","75.1"
"2.52322","2164.35","0.0210264","110.992","75.7"
"2.54325","2165.68","0.0211933","111.061","76.3"
"2.56323","2166.96","0.0213602","111.126","76.9"
"2.5833","2168.07","0.0215271","111.183","77.5"
"2.60328","2169.38","0.0216936","111.25","78.1"
"2.62331","2170.3","0.0218605","111.297","78.7"
"2.64329","2171.49","0.022027","111.358","79.3"
"2.66322","2172.49","0.0221931","111.41","79.9"
"2.68325","2173.96","0.02236","111.485","80.5"
"2.70328","2174.9","0.0225269","111.533","81.1"
"2.72326","2175.87","0.0226938","111.583","81.7"
"2.74333","2177.36","0.0228607","111.659","82.3"
"2.76326","2178.03","0.0230268","111.694","82.9"
"2.78329","2179.34","0.0231937","111.761","83.5"
"2.80322","2180.21","0.0233598","111.805","84.1"
"2.82325","2181.47","0.0235267","111.87","84.7"
"2.84323","2182.27","0.0236936","111.911","85.3"
"2.86331","2183.41","0.0238605","111.97","85.9"
"2.88329","2184.49","0.024027","112.025","86.5"
"2.90327","2185.57","0.0241939","112.08","87.1"
"2.92325","2186.45","0.02436","112.126","87.7"
"2.94323","2187.23","0.0245265","112.166","88.3"
"2.96325","2188.33","0.0246934","112.222","88.9"
"2.98328","2189.13","0.0248603","112.263","89.5"
"3.00331","2190.61","0.0250272","112.339","90.1"
"3.02329","2191.8","0.0251941","112.4","90.7"
"3.04327","2192.52","0.0253602","112.437","91.3"
"3.06325","2193.49","0.0255271","112.487","91.9"
"3.08323","2194.3","0.0256932","112.528","92.5"
"3.10321","2195.33","0.0258601","112.581","93.1"
"3.12333","2196.44","0.0260274","112.638","93.7"
"3.14327","2197.47","0.0261935","112.691","94.3"
"3.16334","2198.26","0.0263608","112.731","94.9"
"3.18323","2198.67","0.0265269","112.752","95.5"
"3.20325","2199.85","0.0266934","112.813","96.1"
"3.22323","2200.46","0.0268599","112.844","96.7"
"3.24326","2201.94","0.0270268","112.92","97.3"
"3.26324","2202.67","0.0271937","112.9572","97.9"
"3.28331","2203.84","0.0273606","113.017","98.5"
"3.3033","2204.33","0.0275271","113.042","99.1"
"3.32328","2205.1","0.0276936","113.082","99.7"
"3.34321","2205.82","0.0278601","113.119","100.3"
"3.36324","2206.82","0.0280266","113.17","100.9"
"3.38326","2207.71","0.0281935","113.216","101.5"
"3.40329","2208.6","0.0283604","113.262","102.1"
"3.42327","2209.29","0.0285269","113.297","102.7"
"3.4433","2210.49","0.0286941","113.359","103.3"
"3.46328","2211.21","0.0288603","113.395","103.9"
"3.48326","2212.09","0.0290268","113.441","104.5"
"3.50324","2212.67","0.0291933","113.47","105.1"
"3.52322","2213.4","0.0293598","113.507","105.7"
"3.54334","2214.46","0.0295274","113.5618","106.3"
"3.56327","2215.28","0.0296939","113.604","106.9"
"3.5833","2216.14","0.0298605","113.648","107.5"
"3.60328","2216.94","0.030027","113.689","108.1"
"3.62326","2217.71","0.0301935","113.729","108.7"
"3.6432","2218.46","0.0303596","113.767","109.3"
"3.66327","2219.19","0.0305269","113.805","109.9"
"3.68325","2220.32","0.0306937","113.862","110.5"
"3.70332","2221.09","0.0308606","113.902","111.1"
"3.72326","2221.81","0.0310268","113.939","111.7"
"3.74324","2222.44","0.0311933","113.971","112.3"
"3.76322","2222.97","0.0313601","113.998","112.9"
"3.78325","2223.89","0.0315267","114.045","113.5"
"3.80327","2224.42","0.0316935","114.073","114.1"
"3.8233","2225.33","0.0318604","114.119","114.7"
"3.84328","2226.02","0.0320273","114.155","115.3"
"3.86331","2226.61","0.0321938","114.185","115.9"
"3.88324","2227.43","0.03236","114.227","116.5"
"3.90322","2228.09","0.0325265","114.261","117.1"
"3.92325","2229.08","0.0326937","114.312","117.7"
"3.94327","2229.61","0.0328602","114.339","118.3"
"3.9633","2230.37","0.0330271","114.378","118.9"
"3.98333","2230.87","0.033194","114.404","119.5"
"4.00331","2231.58","0.0333605","114.44","120.1"
"4.02324","2232.28","0.0335266","114.476","120.7"
"4.04327","2232.74","0.0336935","114.499","121.3"
"4.0632","2233.44","0.0338596","114.535","121.9"
"4.08328","2234.25","0.0340273","114.577","122.5"
"4.10326","2234.86","0.0341934","114.6082","123.1"
"4.12329","2235.6","0.0343607","114.6462","123.7"
"4.14327","2236.41","0.0345272","114.688","124.3"
"4.16325","2236.8","0.0346933","114.708","124.9"
"4.18323","2237.65","0.0348598","114.751","125.5"
"4.20321","2238.1","0.0350267","114.774","126.1"
"4.22328","2239.13","0.0351936","114.827","126.7"
"4.24331","2239.44","0.0353605","114.843","127.3"
"4.26329","2240.42","0.035527","114.893","127.9"
"4.28327","2240.85","0.0356935","114.915","128.5"
"4.30325","2241.41","0.03586","114.944","129.1"
"4.32323","2241.74","0.0360265","114.961","129.7"
"4.34326","2242.42","0.0361934","114.996","130.3"
"4.36328","2243.24","0.0363603","115.038","130.9"
"4.38331","2243.84","0.0365276","115.069","131.5"
"4.40329","2244.38","0.0366937","115.096","132.1"
"4.42327","2245","0.0368606","115.128","132.7"
"4.44321","2245.19","0.0370263","115.138","133.3"
"4.46328","2245.94","0.0371936","115.176","133.9"
"4.48321","2246.56","0.0373597","115.208","134.5"
"4.50329","2247.24","0.037527","115.243","135.1"
"4.52331","2247.77","0.0376939","115.27","135.7"
"4.54329","2248.54","0.0378604","115.31","136.3"
"4.56327","2248.89","0.0380269","115.328","136.9"
"4.58321","2249.37","0.0381934","115.352","137.5"
"4.60324","2249.89","0.0383599","115.3792","138.1"
"4.62326","2250.46","0.0385268","115.408","138.7"
"4.64324","2251.07","0.0386933","115.44","139.3"
"4.66332","2251.58","0.0388606","115.466","139.9"
"4.6833","2252.18","0.0390271","115.496","140.5"
"4.70328","2252.62","0.0391936","115.519","141.1"
"4.72326","2253.04","0.0393601","115.54","141.7"
"4.74324","2253.64","0.0395266","115.571","142.3"
"4.76327","2254.06","0.0396935","115.593","142.9"
"4.78329","2254.62","0.0398604","115.622","143.5"
"4.80332","2255.54","0.0400273","115.669","144.1"
"4.82325","2255.72","0.0401938","115.678","144.7"
"4.84333","2256.64","0.0403607","115.725","145.3"
"4.86321","2256.7","0.0405264","115.728","145.9"
"4.88324","2257.37","0.0406933","115.762","146.5"
"4.90322","2257.78","0.0408602","115.784","147.1"
"4.9233","2258.47","0.0410271","115.819","147.7"
"4.94332","2258.99","0.041194","115.845","148.3"
"4.96326","2259.11","0.0413605","115.852","148.9"
"4.98324","2259.75","0.0415266","115.885","149.5"
"5.00322","2260.03","0.0416935","115.899","150.1"
"5.0232","2260.66","0.04186","115.931","150.7"
"5.04322","2261.11","0.0420269","115.954","151.3"
"5.0633","2261.85","0.0421938","115.992","151.9"
"5.08328","2262.16","0.0423607","116.008","152.5"
"5.10326","2262.52","0.0425272","116.027","153.1"
"5.12324","2262.84","0.0426933","116.043","153.7"
"5.14322","2263.34","0.0428602","116.069","154.3"
"5.16325","2264.04","0.0430267","116.105","154.9"
"5.18327","2264.37","0.0431936","116.121","155.5"
"5.20325","2264.86","0.0433605","116.146","156.1"
"5.22333","2265.55","0.0435273","116.182","156.7"
"5.24326","2265.41","0.0436935","116.175","157.3"
"5.26329","2266.18","0.0438604","116.214","157.9"
"5.28322","2266.46","0.0440265","116.2288","158.5"
"5.30325","2267.14","0.0441934","116.264","159.1"
"5.32323","2267.47","0.0443603","116.281","159.7"
"5.3433","2267.71","0.0445271","116.293","160.3"
"5.36328","2268.07","0.0446936","116.311","160.9"
"5.38331","2268.64","0.0448605","116.34","161.5"
"5.40325","2228.27","0.0450267","114.27","162.1"
"5.42323","2242.52","0.0451932","115.001","162.7"
"5.44325","2252.13","0.0453601","115.494","163.3"
"5.46323","2257","0.0455269","115.744","163.9"
"5.48331","2260.49","0.0456938","115.922","164.5"
"5.50329","2262.18","0.0458603","116.009","165.1"
"5.52327","2263.25","0.0460268","116.064","165.7"
"5.54325","2264.21","0.0461937","116.113","166.3"
"5.56323","2264.9","0.0463598","116.149","166.9"
"5.58321","2265.23","0.0465267","116.166","167.5"
"5.60333","2266.31","0.046694","116.221","168.1"
"5.62331","2266.8","0.0468605","116.246","168.7"
"5.64334","2267.38","0.0470274","116.276","169.3"
"5.66322","2267.96","0.0471935","116.305","169.9"
"5.68325","2268.29","0.04736","116.322","170.5"
"5.70323","2268.59","0.0475265","116.338","171.1"
"5.72326","2269.36","0.0476938","116.377","171.7"
"5.74324","2269.74","0.0478599","116.397","172.3"
"5.76336","2270.47","0.0480276","116.434","172.9"
"5.78325","2270.81","0.0481937","116.452","173.5"
"5.80327","2271.1","0.0483602","116.467","174.1"
"5.82325","2271.63","0.0485267","116.494","174.7"
"5.84323","2271.97","0.0486932","116.511","175.3"
"5.86326","2272.43","0.0488601","116.535","175.9"
"5.88324","2272.81","0.049027","116.555","176.5"
"5.90327","2273.31","0.0491935","116.58","177.1"
"5.92334","2273.89","0.0493608","116.61","177.7"
"5.94323","2274.21","0.0495269","116.626","178.3"
"5.96326","2274.52","0.0496934","116.642","178.9"
"5.98324","2275.02","0.0498599","116.667","179.5"
"6.00326","2275.42","0.0500268","116.688","180.1"
"6.02329","2276.02","0.0501941","116.719","180.7"
"6.04327","2276.09","0.0503602","116.723","181.3"
"6.0633","2276.63","0.0505275","116.75","181.9"
"6.08328","2277.12","0.0506936","116.776","182.5"
"6.10326","2277.38","0.0508601","116.789","183.1"
"6.12319","2277.68","0.0510262","116.804","183.7"
"6.14327","2278.17","0.0511939","116.829","184.3"
"6.16325","2278.38","0.0513604","116.84","184.9"
"6.18332","2279.09","0.0515273","116.876","185.5"
"6.20326","2279.22","0.0516938","116.883","186.1"
"6.22324","2279.73","0.0518599","116.909","186.7"
"6.24322","2279.98","0.0520268","116.922","187.3"
"6.2632","2280.13","0.0521933","116.93","187.9"
"6.28322","2280.61","0.0523602","116.954","188.5"
"6.30334","2281.21","0.0525275","116.985","189.1"
"6.32328","2281.33","0.0526936","116.991","189.7"
"6.3433","2281.87","0.0528605","117.019","190.3"
"6.36324","2282.01","0.0530266","117.026","190.9"
"6.38322","2282.32","0.0531931","117.042","191.5"
"6.40325","2282.79","0.0533604","117.066","192.1"
"6.42327","2282.95","0.0535269","117.074","192.7"
"6.4433","2283.43","0.0536942","117.099","193.3"
"6.46328","2284.03","0.0538603","117.13","193.9"
"6.48331","2284.33","0.0540272","117.145","194.5"
"6.50324","2284.36","0.0541933","117.147","195.1"
"6.52327","2284.62","0.0543602","117.16","195.7"
"6.5432","2284.98","0.0545267","117.179","196.3"
"6.56328","2285.34","0.0546936","117.197","196.9"
"6.58326","2285.87","0.0548605","117.224","197.5"
"6.60328","2285.93","0.055027","117.227","198.1"
"6.62326","2286.61","0.0551939","117.262","198.7"
"6.64324","2286.74","0.05536","117.269","199.3"
"6.66322","2287","0.0555265","117.282","199.9"
"6.68325","2287.4","0.0556934","117.303","200.5"
"6.70323","2287.64","0.0558599","117.315","201.1"
"6.72331","2287.92","0.0560272","117.329","201.7"
"6.74329","2288.54","0.0561937","117.361","202.3"
"6.76327","2288.38","0.0563606","117.353","202.9"
"6.78325","2288.64","0.0565271","117.366","203.5"
"6.80323","2288.9","0.0566932","117.379","204.1"
"6.82325","2289.01","0.0568601","117.385","204.7"
"6.84328","2289.23","0.057027","117.396","205.3"
"6.86331","2289.96","0.0571938","117.434","205.9"
"6.88329","2290.06","0.0573604","117.439","206.5"
"6.90327","2290.38","0.0575272","117.456","207.1"
"6.9232","2290.47","0.057693","117.46","207.7"
"6.94323","2290.85","0.0578603","117.48","208.3"
"6.96321","2291.22","0.0580268","117.4984","208.9"
"6.98328","2291.43","0.0581936","117.509","209.5"
"7.00331","2292","0.0583605","117.538","210.1"
"7.02329","2291.96","0.058527","117.536","210.7"
"7.04327","2292.45","0.0586935","117.561","211.3"
"7.06325","2292.46","0.0588601","117.562","211.9"
"7.08323","2292.66","0.0590266","117.5724","212.5"
"7.10326","2293.01","0.0591934","117.59","213.1"
"7.12329","2293.52","0.0593603","117.616","213.7"
"7.14327","2293.82","0.0595272","117.632","214.3"
"7.16329","2294.06","0.0596937","117.644","214.9"
"7.18328","2294","0.0598602","117.641","215.5"
"7.20326","2294.4","0.0600267","117.661","216.1"
"7.22324","2294.63","0.0601936","117.674","216.7"
"7.24326","2294.87","0.0603601","117.686","217.3"
"7.26329","2295.11","0.060527","117.698","217.9"
"7.28332","2295.43","0.0606939","117.715","218.5"
"7.3033","2295.58","0.0608604","117.722","219.1"
"7.32328","2295.91","0.0610273","117.739","219.7"
"7.34321","2295.87","0.061193","117.737","220.3"
"7.36324","2296.12","0.0613603","117.75","220.9"
"7.38322","2296.28","0.0615268","117.758","221.5"
"7.40329","2296.58","0.0616937","117.773","222.1"
"7.42332","2296.7","0.0618606","117.78","222.7"
"7.4433","2297.06","0.0620271","117.798","223.3"
"7.46323","2297.24","0.0621936","117.807","223.9"
"7.48321","2297.49","0.0623601","117.82","224.5"
"7.50324","2297.5","0.0625266","117.82","225.1"
"7.52322","2297.69","0.0626935","117.83","225.7"
"7.5433","2298.16","0.0628604","117.854","226.3"
"7.56332","2298.36","0.0630273","117.865","226.9"
"7.5833","2298.58","0.0631938","117.876","227.5"
"7.60328","2298.53","0.0633603","117.873","228.1"
"7.62322","2298.74","0.0635264","117.884","228.7"
"7.64324","2298.86","0.0636933","117.89","229.3"
"7.66327","2299.11","0.0638602","117.903","229.9"
"7.68325","2299.29","0.0640271","117.912","230.5"
"7.70333","2299.64","0.0641944","117.93","231.1"
"7.72326","2299.76","0.0643601","117.936","231.7"
"7.74329","2300","0.064527","117.949","232.3"
"7.76322","2299.86","0.0646931","117.941","232.9"
"7.78325","2300.31","0.06486","117.965","233.5"
"7.80327","2300.36","0.0650269","117.967","234.1"
"7.8233","2300.58","0.0651938","117.978","234.7"
"7.84328","2300.7","0.0653603","117.984","235.3"
"7.86326","2300.9","0.0655272","117.995","235.9"
"7.88324","2300.7","0.0656933","117.985","236.5"
"7.90322","2301.1","0.0658598","118.005","237.1"
"7.92325","2301.23","0.0660267","118.012","237.7"
"7.94328","2301.45","0.0661936","118.023","238.3"
"7.9633","2301.75","0.0663605","118.038","238.9"
"7.98333","2302","0.0665274","118.051","239.5"
"8.00327","2302.21","0.0666935","118.062","240.1"
"8.02329","2302.45","0.0668604","118.074","240.7"
"8.04323","2302.41","0.0670265","118.072","241.3"
"8.06321","2302.59","0.0671934","118.081","241.9"
"8.08333","2302.96","0.0673607","118.1","242.5"
"8.10326","2303.1","0.0675272","118.108","243.1"
"8.12333","2303.2","0.0676945","118.113","243.7"
"8.14327","2303.2","0.0678602","118.113","244.3"
"8.16325","2303.68","0.0680267","118.137","244.9"
"8.18323","2303.57","0.0681932","118.132","245.5"
"8.20326","2303.64","0.0683601","118.135","246.1"
"8.22328","2303.75","0.068527","118.1408","246.7"
"8.24331","2304.24","0.0686943","118.166","247.3"
"8.26329","2304.11","0.0688604","118.16","247.9"
"8.28327","2304.25","0.0690269","118.166","248.5"
"8.30321","2304.34","0.069193","118.171","249.1"
"8.32323","2304.27","0.0693599","118.168","249.7"
"8.34326","2304.58","0.0695268","118.184","250.3"
"8.36329","2305.03","0.0696937","118.207","250.9"
"8.38327","2305.05","0.0698602","118.208","251.5"
"8.40329","2305.16","0.0700271","118.213","252.1"
"8.42327","2305.31","0.0701936","118.221","252.7"
"8.44325","2305.45","0.0703601","118.228","253.3"
"8.46328","2305.65","0.070527","118.239","253.9"
"8.48322","2305.75","0.0706935","118.244","254.5"
"8.50334","2305.8","0.0708607","118.246","255.1"
"8.52327","2305.93","0.0710269","118.253","255.7"
"8.5433","2306.14","0.0711937","118.263","256.3"
"8.56328","2306","0.0713603","118.257","256.9"
"8.58326","2306.17","0.0715268","118.265","257.5"
"8.60319","2306.23","0.0716933","118.268","258.1"
"8.62326","2306.38","0.0718601","118.276","258.7"
"8.64325","2306.56","0.0720267","118.285","259.3"
"8.66332","2306.83","0.0721943","118.299","259.9"
"8.68325","2307.12","0.0723604","118.314","260.5"
"8.70323","2307.14","0.0725269","118.315","261.1"
"8.72321","2307.29","0.0726934","118.323","261.7"
"8.74319","2307.29","0.07286","118.323","262.3"
"8.76322","2307.5","0.0730268","118.333","262.9"
"8.78329","2307.71","0.0731937","118.344","263.5"
"8.80332","2307.77","0.0733606","118.347","264.1"
"8.8233","2308.04","0.0735271","118.361","264.7"
"8.84324","2308.09","0.0736932","118.364","265.3"
"8.86322","2308","0.0738598","118.359","265.9"
"8.88324","2308.21","0.074027","118.37","266.5"
"8.90327","2308.34","0.0741935","118.377","267.1"
"8.9233","2308.65","0.0743604","118.392","267.7"
"8.94332","2308.66","0.0745273","118.393","268.3"
"8.96331","2308.77","0.0746938","118.398","268.9"
"8.98324","2308.58","0.0748599","118.389","269.5"
"9.00327","2308.78","0.0750268","118.399","270.1"
"9.0232","2308.84","0.0751929","118.402","270.7"
"9.04332","2309.31","0.0753606","118.426","271.3"
"9.06325","2309.14","0.0755267","118.417","271.9"
"9.08328","2309.31","0.0756936","118.426","272.5"
"9.10326","2309.25","0.0758605","118.423","273.1"
"9.12324","2309.16","0.0760266","118.418","273.7"
"9.14322","2309.3","0.0761931","118.426","274.3"
"9.16325","2309.62","0.07636","118.442","274.9"
"9.18328","2309.45","0.0765269","118.433","275.5"
"9.2033","2309.78","0.0766938","118.45","276.1"
"9.22328","2309.91","0.0768603","118.457","276.7"
"9.24326","2310.05","0.0770272","118.464","277.3"
"9.26324","2309.99","0.0771937","118.461","277.9"
"9.28323","2310.21","0.0773598","118.473","278.5"
"9.30321","2310.19","0.0775267","118.471","279.1"
"9.32328","2310.3","0.0776936","118.477","279.7"
"9.34331","2310.59","0.0778605","118.492","280.3"
"9.36329","2310.63","0.078027","118.494","280.9"
"9.38331","2310.78","0.0781939","118.501","281.5"
"9.4032","2310.87","0.0783596","118.506","282.1"
"9.42327","2311.01","0.0785269","118.513","282.7"
"9.44321","2310.93","0.078693","118.509","283.3"
"9.46328","2311.11","0.0788603","118.519","283.9"
"9.48331","2311.16","0.0790272","118.521","284.5"
"9.50329","2311.37","0.0791937","118.532","285.1"
"9.52327","2311.36","0.0793602","118.531","285.7"
"9.5432","2311.35","0.0795267","118.531","286.3"
"9.56323","2311.78","0.0796932","118.553","286.9"
"9.58326","2311.56","0.0798601","118.542","287.5"
"9.60329","2311.99","0.080027","118.564","288.1"
"9.62331","2312.24","0.0801939","118.576","288.7"
"9.64329","2312.18","0.0803604","118.573","289.3"
"9.66327","2312.13","0.0805269","118.571","289.9"
"9.68321","2311.97","0.0806934","118.563","290.5"
"9.70323","2312.2","0.0808599","118.574","291.1"
"9.72326","2312.17","0.0810268","118.573","291.7"
"9.74329","2312.34","0.0811937","118.582","292.3"
"9.76332","2312.4","0.0813606","118.584","292.9"
"9.78325","2312.3","0.0815267","118.579","293.5"
"9.80332","2312.6","0.081694","118.595","294.1"
"9.82321","2312.35","0.0818597","118.582","294.7"
"9.84324","2312.54","0.0820266","118.592","295.3"
"9.86326","2312.64","0.0821935","118.597","295.9"
"9.88329","2312.6","0.0823604","118.595","296.5"
"9.90332","2312.74","0.0825273","118.6022","297.1"
"9.92325","2312.81","0.0826938","118.606","297.7"
"9.94323","2312.83","0.0828603","118.607","298.3"
"9.96326","2312.91","0.0830268","118.611","298.9"
"9.98319","2312.77","0.0831933","118.604","299.5"
"10.0033","2312.86","0.0833602","118.608","300.1"
"10.0233","2313.43","0.0835271","118.637","300.7"
"10.0433","2313.44","0.083694","118.638","301.3"
"10.0633","2313.58","0.0838605","118.645","301.9"
"10.0832","2313.44","0.0840266","118.638","302.5"
"10.1032","2313.44","0.0841935","118.638","303.1"
"10.1232","2313.61","0.08436","118.647","303.7"
"10.1433","2313.68","0.0845269","118.65","304.3"
"10.1633","2313.8","0.0846938","118.6564","304.9"
"10.1834","2313.98","0.084861","118.665","305.5"
"10.2033","2313.71","0.0850268","118.652","306.1"
"10.2233","2313.98","0.0851936","118.666","306.7"
"10.2432","2313.88","0.0853598","118.661","307.3"
"10.2632","2314.09","0.0855267","118.671","307.9"
"10.2833","2314.31","0.0856936","118.682","308.5"
"10.3033","2314.43","0.0858604","118.6886","309.1"
"10.3233","2314.75","0.0860269","118.705","309.7"
"10.3433","2314.45","0.0861938","118.69","310.3"
"10.3632","2314.52","0.08636","118.694","310.9"
"10.3832","2314.73","0.0865265","118.704","311.5"
"10.4032","2314.51","0.0866933","118.693","312.1"
"10.4233","2314.71","0.0868602","118.703","312.7"
"10.4433","2314.81","0.0870271","118.708","313.3"
"10.4633","2314.93","0.0871936","118.714","313.9"
"10.4833","2314.99","0.0873601","118.718","314.5"
"10.5033","2315.03","0.087527","118.719","315.1"
"10.5232","2315.04","0.0876931","118.7202","315.7"
"10.5433","2315.06","0.08786","118.721","316.3"
"10.5633","2315.39","0.0880273","118.738","316.9"
"10.5833","2315.21","0.0881938","118.729","317.5"
"10.6033","2315.54","0.0883607","118.746","318.1"
"10.6233","2315.46","0.0885268","118.7416","318.7"
"10.6433","2315.43","0.0886937","118.74","319.3"
"10.6632","2315.66","0.0888598","118.752","319.9"
"10.6833","2315.47","0.0890267","118.742","320.5"
"10.7032","2315.51","0.0891932","118.744","321.1"
"10.7234","2315.96","0.0893609","118.767","321.7"
"10.7433","2315.99","0.089527","118.769","322.3"
"10.7633","2315.93","0.0896935","118.766","322.9"
"10.7832","2315.96","0.08986","118.767","323.5"
"10.8032","2315.87","0.0900265","118.762","324.1"
"10.8233","2315.98","0.0901934","118.768","324.7"
"10.8433","2316.06","0.0903603","118.772","325.3"
"10.8633","2316.68","0.0905272","118.804","325.9"
"10.8833","2316.41","0.0906941","118.79","326.5"
"10.9032","2316.42","0.0908598","118.791","327.1"
"10.9233","2316.2","0.0910267","118.78","327.7"
"10.9432","2316.46","0.0911932","118.793","328.3"
"10.9633","2316.46","0.0913601","118.793","328.9"
"10.9833","2316.69","0.0915274","118.805","329.5"
"11.0033","2316.8","0.0916935","118.81","330.1"
"11.0233","2316.82","0.0918608","118.811","330.7"
"11.0432","2316.97","0.0920269","118.819","331.3"
"11.0633","2316.85","0.0921938","118.813","331.9"
"11.0832","2317","0.0923599","118.82","332.5"
"11.1033","2317.2","0.0925272","118.831","333.1"
"11.1232","2317.18","0.0926933","118.83","333.7"
"11.1433","2317.34","0.0928606","118.838","334.3"
"11.1633","2317.41","0.0930271","118.842","334.9"
"11.1832","2317.55","0.0931936","118.849","335.5"
"11.2033","2317.46","0.0933601","118.844","336.1"
"11.2232","2317.46","0.0935266","118.844","336.7"
"11.2432","2317.44","0.0936935","118.843","337.3"
"11.2633","2317.67","0.0938608","118.855","337.9"
"11.2833","2317.74","0.0940269","118.858","338.5"
"11.3033","2317.73","0.0941942","118.858","339.1"
"11.3232","2317.82","0.0943603","118.862","339.7"
"11.3432","2317.76","0.0945268","118.86","340.3"
"11.3632","2317.51","0.0946933","118.8468","340.9"
"11.3832","2317.75","0.0948602","118.859","341.5"
"11.4033","2318.11","0.0950275","118.877","342.1"
"11.4233","2318.01","0.095194","118.872","342.7"
"11.4433","2318.02","0.0953609","118.873","343.3"
"11.4632","2318","0.0955266","118.872","343.9"
"11.4833","2318.1","0.0956935","118.877","344.5"
"11.5032","2318.1","0.09586","118.877","345.1"
"11.5233","2318.35","0.0960273","118.89","345.7"
"11.5433","2318.375","0.0961938","118.891","346.3"
"11.5633","2318.16","0.0963607","118.88","346.9"
"11.5833","2318.45","0.0965272","118.895","347.5"
"11.6032","2318.06","0.0966933","118.875","348.1"
"11.6232","2318.43","0.0968598","118.894","348.7"
"11.6432","2318.33","0.0970267","118.889","349.3"
"11.6633","2318.41","0.0971936","118.893","349.9"
"11.6833","2318.77","0.0973605","118.911","350.5"
"11.7033","2318.51","0.097527","118.898","351.1"
"11.7233","2318.75","0.0976935","118.91","351.7"
"11.7432","2318.67","0.0978604","118.906","352.3"
"11.7632","2318.6","0.0980265","118.903","352.9"
"11.7833","2318.65","0.0981934","118.905","353.5"
"11.8033","2318.96","0.0983603","118.921","354.1"
"11.8233","2318.92","0.0985271","118.919","354.7"
"11.8433","2318.74","0.0986937","118.91","355.3"
"11.8633","2318.88","0.0988605","118.917","355.9"
"11.8832","2318.79","0.0990267","118.912","356.5"
"11.9033","2319.16","0.0991936","118.931","357.1"
"11.9232","2318.9","0.0993597","118.918","357.7"
"11.9433","2319.04","0.0995269","118.925","358.3"
"11.9633","2319.3","0.0996938","118.938","358.9"
"11.9833","2319.27","0.0998603","118.937","359.5"
"12.0033","2319.31","0.100027","118.939","360.1"
"12.0232","2319.05","0.100193","118.926","360.7"
"12.0432","2319.27","0.10036","118.937","361.3"
"12.0633","2319.36","0.100527","118.942","361.9"
"12.0833","2319.5","0.100694","118.949","362.5"
"12.1033","2319.87","0.100861","118.968","363.1"
"12.1233","2319.83","0.101027","118.966","363.7"
"12.1433","2319.68","0.101194","118.958","364.3"
"12.1633","2319.76","0.10136","118.962","364.9"
"12.1832","2319.53","0.101527","118.95","365.5"
"12.2033","2319.46","0.101693","118.947","366.1"
"12.2233","2319.87","0.101861","118.967","366.7"
"12.2433","2320.12","0.102027","118.981","367.3"
"12.2632","2319.86","0.102194","118.967","367.9"
"12.2833","2319.76","0.102361","118.962","368.5"
"12.3032","2319.81","0.102526","118.964","369.1"
"12.3233","2320.02","0.102694","118.975","369.7"
"12.3433","2320.24","0.10286","118.986","370.3"
"12.3633","2320.23","0.103027","118.986","370.9"
"12.3833","2320.15","0.103194","118.982","371.5"
"12.4033","2319.93","0.10336","118.971","372.1"
"12.4232","2320.1","0.103527","118.979","372.7"
"12.4432","2320.01","0.103693","118.975","373.3"
"12.4632","2320.24","0.10386","118.987","373.9"
"12.4832","2320.1","0.104027","118.979","374.5"
"12.5033","2320.28","0.104194","118.989","375.1"
"12.5233","2320.33","0.104361","118.991","375.7"
"12.5433","2320.26","0.104527","118.9878","376.3"
"12.5633","2320.34","0.104694","118.992","376.9"
"12.5832","2320.1","0.10486","118.9796","377.5"
"12.6032","2318.36","0.105027","118.891","378.1"
"12.6233","2318.1","0.105194","118.877","378.7"
"12.6433","2318.19","0.10536","118.881","379.3"
"12.6634","2318.52","0.105528","118.898","379.9"
"12.6833","2318.3","0.105693","118.887","380.5"
"12.7033","2318.39","0.10586","118.892","381.1"
"12.7232","2317.89","0.106026","118.866","381.7"
"12.7432","2316.99","0.106193","118.82","382.3"
"12.7633","2311.43","0.10636","118.535","382.9"
"12.7833","2310.52","0.106527","118.488","383.5"
"12.8033","2310.51","0.106694","118.488","384.1"
"12.8233","2310.86","0.10686","118.506","384.7"
"12.8432","2311.11","0.107027","118.519","385.3"
"12.8632","2311.21","0.107193","118.523","385.9"
"12.8832","2311.6","0.10736","118.543","386.5"
"12.9033","2311.79","0.107527","118.553","387.1"
"12.9233","2312.15","0.107694","118.572","387.7"
"12.9433","2312.34","0.107861","118.582","388.3"
"12.9633","2312.09","0.108027","118.569","388.9"
"12.9833","2312.05","0.108194","118.567","389.5"
"13.0032","2312.15","0.10836","118.572","390.1"
"13.0232","2312.04","0.108527","118.566","390.7"
"13.0433","2311.96","0.108694","118.5618","391.3"
"13.0633","2311.83","0.10886","118.555","391.9"
"13.0833","2311.15","0.109027","118.521","392.5"
"13.1033","2290.19","0.109193","117.445","393.1"
"13.1232","2289.3","0.10936","117.4","393.7"
"13.1432","2289.56","0.109526","117.413","394.3"
"13.1633","2289.99","0.109693","117.435","394.9"
"13.1832","2290.25","0.10986","117.449","395.5"
"13.2033","2290.73","0.110027","117.473","396.1"
"13.2233","2290.63","0.110194","117.468","396.7"
"13.2433","2290.78","0.11036","117.476","397.3"
"13.2632","2290.76","0.110527","117.475","397.9"
"13.2832","2290.24","0.110693","117.448","398.5"
"13.3033","2289.92","0.11086","117.432","399.1"
"13.3233","2289.39","0.111027","117.405","399.7"
"13.3433","2287.69","0.111194","117.318","400.3"
"13.3633","2285.93","0.111361","117.227","400.9"
"13.3833","2283.48","0.111527","117.101","401.5"
"13.4032","2281.47","0.111693","116.998","402.1"
"13.4232","2280.66","0.11186","116.957","402.7"
"13.4433","2280.15","0.112027","116.931","403.3"
"13.4633","2279.69","0.112194","116.907","403.9"
"13.4833","2279.2","0.112361","116.882","404.5"
"13.5033","2278.36","0.112527","116.839","405.1"
"13.5233","2278.02","0.112694","116.8214","405.7"
"13.5433","2277.38","0.11286","116.789","406.3"
"13.5632","2276.76","0.113027","116.757","406.9"
"13.5833","2276.48","0.113194","116.743","407.5"
"13.6032","2275.71","0.11336","116.703","408.1"
"13.6233","2273.55","0.113527","116.592","408.7"
"13.6432","2272.43","0.113693","116.535","409.3"
"13.6632","2272.25","0.11386","116.525","409.9"
"13.6833","2271.95","0.114027","116.51","410.5"
"13.7032","2271.44","0.114193","116.484","411.1"
"13.7232","2271.09","0.11436","116.4662","411.7"
"13.7433","2271.05","0.114527","116.464","412.3"
"13.7633","2270.6","0.114694","116.441","412.9"
"13.7833","2270.32","0.11486","116.427","413.5"
"13.8033","2270.04","0.115027","116.412","414.1"
"13.8232","2269.15","0.115193","116.367","414.7"
"13.8432","2269.07","0.11536","116.363","415.3"
"13.8633","2268.21","0.115527","116.318","415.9"
"13.8833","2267.66","0.115694","116.29","416.5"
"13.9033","2267.4","0.115861","116.277","417.1"
"13.9233","2266.88","0.116027","116.25","417.7"
"13.9432","2266.41","0.116193","116.226","418.3"
"13.9633","2266.06","0.11636","116.208","418.9"
"13.9832","2265.45","0.116526","116.177","419.5"
"14.0033","2264.96","0.116694","116.152","420.1"
"14.0232","2264.88","0.11686","116.148","420.7"
"14.0433","2264.95","0.117027","116.151","421.3"
"14.0633","2264.62","0.117194","116.1344","421.9"
"14.0832","2264.24","0.11736","116.115","422.5"
"14.1032","2263.77","0.117526","116.091","423.1"
"14.1232","2263.83","0.117693","116.094","423.7"
"14.1433","2263.64","0.11786","116.084","424.3"
"14.1633","2263.35","0.118027","116.069","424.9"
"14.1833","2263.21","0.118194","116.062","425.5"
"14.2033","2262.66","0.118361","116.034","426.1"
"14.2232","2262.47","0.118527","116.024","426.7"
"14.2432","2261.79","0.118694","115.989","427.3"
"14.2632","2261.57","0.11886","115.978","427.9"
"14.2833","2261.56","0.119027","115.977","428.5"
"14.3033","2261.19","0.119194","115.9584","429.1"
"14.3233","2260.93","0.11936","115.945","429.7"
"14.3433","2260.61","0.119527","115.929","430.3"
"14.3632","2260.26","0.119693","115.911","430.9"
"14.3833","2260.34","0.119861","115.915","431.5"
"14.4032","2259.98","0.120026","115.896","432.1"
"14.4233","2259.91","0.120194","115.893","432.7"
"14.4433","2259.88","0.12036","115.891","433.3"
"14.4633","2259.74","0.120527","115.884","433.9"
"14.4833","2259.47","0.120694","115.87","434.5"
"14.5032","2259.48","0.12086","115.871","435.1"
"14.5232","2259.25","0.121027","115.859","435.7"
"14.5433","2259.39","0.121193","115.866","436.3"
"14.5633","2259.18","0.12136","115.855","436.9"
"14.5833","2258.92","0.121527","115.842","437.5"
"14.6033","2259.12","0.121694","115.852","438.1"
"14.6233","2258.95","0.121861","115.844","438.7"
"14.6432","2258.69","0.122027","115.83","439.3"
"14.6632","2258.31","0.122193","115.811","439.9"
"14.6833","2258.11","0.12236","115.8","440.5"
"14.7033","2258.37","0.122527","115.814","441.1"
"14.7233","2258.21","0.122694","115.806","441.7"
"14.7432","2257.87","0.12286","115.788","442.3"
"14.7633","2258.19","0.123027","115.805","442.9"
"14.7832","2257.51","0.123193","115.77","443.5"
"14.8032","2257.8","0.12336","115.785","444.1"
"14.8233","2257.66","0.123527","115.777","444.7"
"14.8433","2257.65","0.123694","115.777","445.3"
"14.8633","2257.54","0.123861","115.771","445.9"
"14.8832","2257.39","0.124027","115.763","446.5"
"14.9032","2257.31","0.124193","115.759","447.1"
"14.9233","2257.05","0.12436","115.746","447.7"
"14.9432","2257.11","0.124527","115.749","448.3"
"14.9633","2257.07","0.124693","115.747","448.9"
"14.9833","2256.94","0.12486","115.74","449.5"
"15.0033","2256.8","0.125027","115.733","450.1"
"15.0233","2256.91","0.125194","115.739","450.7"
"15.0433","2256.75","0.12536","115.731","451.3"
"15.0633","2256.65","0.125527","115.7254","451.9"
"15.0832","2256.5","0.125693","115.718","452.5"
"15.1033","2256.38","0.12586","115.712","453.1"
"15.1232","2256.3","0.126027","115.708","453.7"
"15.1433","2256.52","0.126194","115.719","454.3"
"15.1633","2256.16","0.12636","115.7","454.9"
"15.1833","2256.22","0.126527","115.704","455.5"
"15.2032","2256.24","0.126693","115.704","456.1"
"15.2232","2255.95","0.12686","115.69","456.7"
"15.2433","2255.68","0.127027","115.676","457.3"
"15.2633","2255.8","0.127194","115.682","457.9"
"15.2833","2256.06","0.12736","115.695","458.5"
"15.3033","2255.84","0.127527","115.684","459.1"
"15.3232","2255.75","0.127693","115.679","459.7"
"15.3432","2255.54","0.12786","115.669","460.3"
"15.3632","2255.53","0.128027","115.668","460.9"
"15.3833","2255.32","0.128194","115.658","461.5"
"15.4033","2255.55","0.128361","115.669","462.1"
"15.4233","2255.52","0.128527","115.668","462.7"
"15.4433","2255.6","0.128693","115.672","463.3"
"15.4633","2255.23","0.12886","115.653","463.9"
"15.4832","2255.13","0.129026","115.648","464.5"
"15.5032","2255.03","0.129193","115.6428","465.1"
"15.5233","2255.22","0.129361","115.652","465.7"
"15.5433","2255.46","0.129527","115.665","466.3"
"15.5633","2254.97","0.129694","115.639","466.9"
"15.5833","2254.75","0.12986","115.628","467.5"
"15.6033","2254.87","0.130027","115.635","468.1"
"15.6232","2254.63","0.130193","115.622","468.7"
"15.6433","2254.68","0.13036","115.624","469.3"
"15.6632","2254.75","0.130527","115.628","469.9"
"15.6834","2254.67","0.130694","115.624","470.5"
"15.7033","2254.61","0.13086","115.621","471.1"
"15.7233","2254.43","0.131027","115.612","471.7"
"15.7432","2254.46","0.131193","115.613","472.3"
"15.7632","2254.46","0.13136","115.613","472.9"
"15.7833","2254.36","0.131527","115.608","473.5"
"15.8033","2254.21","0.131694","115.6006","474.1"
"15.8233","2254.08","0.131861","115.594","474.7"
"15.8433","2254.11","0.132027","115.595","475.3"
"15.8633","2253.88","0.132194","115.584","475.9"
"15.8832","2253.88","0.13236","115.583","476.5"
"15.9032","2253.79","0.132527","115.579","477.1"
"15.9233","2253.81","0.132693","115.58","477.7"
"15.9433","2253.9","0.132861","115.584","478.3"
"15.9633","2253.7","0.133027","115.575","478.9"
"15.9833","2253.79","0.133194","115.579","479.5"
"16.0032","2253.65","0.13336","115.572","480.1"
"16.0233","2253.67","0.133527","115.573","480.7"
"16.0432","2253.33","0.133693","115.555","481.3"
"16.0633","2253.51","0.13386","115.565","481.9"
"16.0833","2253.04","0.134027","115.541","482.5"
"16.1033","2253.16","0.134194","115.547","483.1"
"16.1232","2252.59","0.13436","115.518","483.7"
"16.1432","2251.95","0.134527","115.484","484.3"
"16.1633","2252.32","0.134693","115.504","484.9"
"16.1832","2252","0.13486","115.487","485.5"
"16.2033","2252.55","0.135027","115.515","486.1"
"16.2233","2252.3","0.135194","115.503","486.7"
"16.2433","2252.2","0.13536","115.497","487.3"
"16.2633","2252.07","0.135527","115.491","487.9"
"16.2832","2252.04","0.135694","115.489","488.5"
"16.3033","2251.92","0.13586","115.483","489.1"
"16.3232","2252","0.136027","115.487","489.7"
"16.3432","2251.82","0.136193","115.478","490.3"
"16.3633","2250.41","0.136361","115.406","490.9"
"16.3833","2250.08","0.136527","115.389","491.5"
"16.4033","2250.22","0.136694","115.396","492.1"
"16.4232","2250.21","0.13686","115.396","492.7"
"16.4433","2249.97","0.137027","115.383","493.3"
"16.4632","2249.45","0.137193","115.356","493.9"
"16.4833","2249.63","0.13736","115.366","494.5"
"16.5033","2248.64","0.137527","115.315","495.1"
"16.5233","2246.64","0.137694","115.212","495.7"
"16.5433","2242.95","0.13786","115.023","496.3"
"16.5632","2241.44","0.138027","114.945","496.9"
"16.5832","2241.57","0.138193","114.952","497.5"
"16.6032","2241.75","0.13836","114.962","498.1"
"16.6233","2241.62","0.138527","114.955","498.7"
"16.6433","2241.67","0.138694","114.957","499.3"
"16.6633","2240.73","0.13886","114.909","499.9"
"16.6833","2239.23","0.139027","114.832","500.5"
"16.7032","2237.88","0.139194","114.763","501.1"
"16.7232","2235.32","0.13936","114.632","501.7"
"16.7432","2234.51","0.139527","114.59","502.3"
"16.7633","2233.33","0.139694","114.53","502.9"
"16.7833","2225.07","0.13986","114.106","503.5"
"16.8033","2216.68","0.140027","113.676","504.1"
"16.8233","2208.61","0.140194","113.262","504.7"
"16.8432","2188.53","0.14036","112.2322","505.3"
"16.8633","983.14","0.140527","50.4174","505.9"
"16.8832","995.436","0.140693","51.048","506.5"
"16.9033","1009.33","0.14086","51.7605","507.1"
"16.9233","1020.8","0.141027","52.3488","507.7"
"16.9433","1030.33","0.141194","52.8377","508.3"
"16.9633","1038.38","0.14136","53.2501","508.9"
"16.9832","1044.91","0.141527","53.5849","509.5"
"17.0032","1050.51","0.141693","53.8723","510.1"
"17.0233","1054.81","0.14186","54.09266","510.7"
"17.0433","1058.08","0.142027","54.26034","511.3"
"17.0633","1058.82","0.142194","54.2982","511.9"
"17.0833","1060.37","0.142361","54.3781","512.5"
"17.1033","1061.95","0.142527","54.4592","513.1"
"17.1232","1063.09","0.142693","54.51766","513.7"
"17.1432","1064","0.14286","54.5641","514.3"
"17.1633","1064.7","0.143027","54.5999","514.9"
"17.1833","1065.42","0.143194","54.6367","515.5"
"17.2033","1066.32","0.143361","54.6829","516.1"
"17.2133","1066.51","0.143444","54.6927","516.4"