File: experimental_data/tensile_specimen_test_data/tensile_test_data/20250312/original_data/SSS 11 03-12-25 16 18 12 下午/数采：横梁, … - (实时值).csv
"文件路径: C:\Users\Lenovo\Desktop\Wayne\20250312\原始数据\SSS 11 03-12-25 16 18 12 下午\数采：横梁, … - (实时值).csv   "
"试验: 拉伸试验（UNIVER）      视频引伸计采集变形-W 1"
"试验运行: SSS 11"
"日期: 2025/3/12 14:18:00"
""
""
"横梁 ","力 ","视频引伸计变形 ","应变 ","时间 "
"mm","N","mm","mm/mm","sec"
"0.00265475","-60.5242","0.0006","1.2e-05","0.1"
"0.0465279","176.655","0.0472","0.000944","1.4"
"0.0899353","411.055","0.0893","0.001786","2.7"
"0.133296","635.187","0.1205","0.00241","4"
"0.17661","851.367","0.1523","0.003046","5.3"
"0.219925","1058.4","0.1833","0.003666","6.6"
"0.263239","1255.7","0.2131","0.004262","7.9"
"0.306553","1439.58","0.2421","0.004842","9.2"
"0.349914","1600.04","0.271","0.00542","10.5"
"0.393321","1741.87","0.2989","0.005978","11.8"
"0.436636","1866.45","0.3289","0.006578","13.1"
"0.47995","1977.49","0.3591","0.007182","14.4"
"0.523218","2078.47","0.3846","0.007692","15.7"
"0.566532","2168.55","0.4131","0.008262","17"
"0.609939","2250.22","0.4413","0.008826","18.3"
"0.653254","2321.86","0.4691","0.009382","19.6"
"0.696615","2384.76","0.4961","0.009922","20.9"
"0.739929","2442.57","0.5231","0.010462","22.2"
"0.783196","2493.1","0.5513","0.011026","23.5"
"0.826604","2539.26","0.5778","0.011556","24.8"
"0.869965","2580.9","0.6044","0.012088","26.1"
"0.913232","2618.6","0.6333","0.012666","27.4"
"0.956593","2653.71","0.6588","0.013176","28.7"
"0.999907","2685.54","0.6876","0.013752","30"
"1.04327","2714.84","0.7182","0.014364","31.3"
"1.08663","2743.27","0.7442","0.014884","32.6"
"1.12994","2748.87","0.769","0.01538","33.9"
"1.17326","2780.47","0.8036","0.016072","35.2"
"1.21653","2805.55","0.8298","0.016596","36.5"
"1.25989","2827.94","0.8595","0.01719","37.8"
"1.30325","2849.4","0.8879","0.017758","39.1"
"1.34665","2869.34","0.9157","0.018314","40.4"
"1.38992","2887.62","0.9447","0.018894","41.7"
"1.43319","2905.51","0.9762","0.019524","43"
"1.47655","2922.92","1.0052","0.020104","44.3"
"1.51991","2939.67","1.0322","0.020644","45.6"
"1.56327","2955.63","1.0625","0.02125","46.9"
"1.60659","2970.36","1.0932","0.021864","48.2"
"1.6499","2985.6","1.1197","0.022394","49.5"
"1.69326","2999.54","1.1502","0.023004","50.8"
"1.73658","3013.51","1.1802","0.023604","52.1"
"1.77994","3027.21","1.2078","0.024156","53.4"
"1.8233","3039.98","1.2387","0.024774","54.7"
"1.86657","3052.78","1.2687","0.025374","56"
"1.90988","3065.05","1.2961","0.025922","57.3"
"1.95324","3076.64","1.3278","0.026556","58.6"
"1.9966","3089.07","1.3583","0.027166","59.9"
"2.03996","3100.77","1.3878","0.027756","61.2"
"2.08328","3111.96","1.4189","0.028378","62.5"
"2.12654","3123","1.4497","0.028994","63.8"
"2.16986","3133.75","1.4775","0.02955","65.1"
"2.21322","3145.06","1.5084","0.030168","66.4"
"2.25658","3154.79","1.5398","0.030796","67.7"
"2.29999","3165.76","1.5693","0.031386","69"
"2.34326","3175.62","1.6001","0.032002","70.3"
"2.38657","3184.8","1.6325","0.03265","71.6"
"2.42993","3194.79","1.6626","0.033252","72.9"
"2.47324","3204.82","1.6936","0.033872","74.2"
"2.51665","3214.37","1.7245","0.03449","75.5"
"2.55992","3223.8","1.7532","0.035064","76.8"
"2.60323","3233.02","1.7851","0.035702","78.1"
"2.64659","3242.42","1.8166","0.036332","79.4"
"2.68991","3229","1.8354","0.036708","80.7"
"2.73327","3251.33","1.858","0.03716","82"
"2.77663","3262.8","1.8867","0.037734","83.3"
"2.81985","3272.04","1.9164","0.038328","84.6"
"2.86321","3280.98","1.9455","0.03891","85.9"
"2.90657","3289.59","1.9771","0.039542","87.2"
"2.94998","3298.31","2.4113","0.048226","88.5"
"2.99334","3307.17","2.4446","0.048892","89.8"
"3.03656","3315","2.4803","0.049606","91.1"
"3.07988","3322.86","2.5138","0.050276","92.4"
"3.12324","3331.32","2.5446","0.050892","93.7"
"3.1666","3339.5","2.5883","0.051766","95"
"3.20996","3347.25","2.6252","0.052504","96.3"
"3.25332","3355.4","2.6586","0.053172","97.6"
"3.29659","3362.77","2.6904","0.053808","98.9"
"3.3399","3370.5","2.7409","0.054818","100.2"
"3.38326","3378.42","2.7625","0.05525","101.5"
"3.42658","3386.125","2.8075","0.05615","102.8"
"3.46994","3393.98","2.8404","0.056808","104.1"
"3.51325","3400.93","2.8761","0.057522","105.4"
"3.55657","3408.3","2.9107","0.058214","106.7"
"3.59997","3415.94","2.9554","0.059108","108"
"3.64329","3423.28","2.9939","0.059878","109.3"
"3.68665","3430.68","3.0212","0.060424","110.6"
"3.72996","3421.62","3.0642","0.061284","111.9"
"3.77318","3434.75","3.0987","0.061974","113.2"
"3.81655","3444.32","3.1271","0.062542","114.5"
"3.85991","3452.03","3.1647","0.063294","115.8"
"3.90331","3459.49","3.1958","0.063916","117.1"
"3.94663","3466.3","3.2332","0.064664","118.4"
"3.9899","3472.57","3.2775","0.06555","119.7"
"4.03321","3479.76","3.3053","0.066106","121"
"4.07657","3486.29","3.3448","0.066896","122.3"
"4.11993","3493.09","3.383","0.06766","123.6"
"4.16329","3499.63","3.416","0.06832","124.9"
"4.20661","3505.96","3.4517","0.069034","126.2"
"4.24992","3512.31","3.4898","0.069796","127.5"
"4.29324","3518.7","3.5328","0.070656","128.8"
"4.3366","3524.92","3.5641","0.071282","130.1"
"4.37996","3530.27","3.6","0.072","131.4"
"4.42327","3536.36","3.63","0.0726","132.7"
"4.46654","3542.55","3.6686","0.073372","134"
"4.50985","3548.82","3.7067","0.074134","135.3"
"4.55331","3554.94","3.7484","0.074968","136.6"
"4.59662","3560.79","3.7841","0.075682","137.9"
"4.63994","3566.61","3.8162","0.076324","139.2"
"4.68325","3572.11","3.8607","0.077214","140.5"
"4.72652","3573.86","3.8866","0.077732","141.8"
"4.76988","3581.2","3.9249","0.078498","143.1"
"4.81329","3587.97","3.9595","0.07919","144.4"
"4.85665","3593.51","3.9976","0.079952","145.7"
"4.89996","3598.85","4.0267","0.080534","147"
"4.94323","3604.18","4.0681","0.081362","148.3"
"4.98659","3609.17","4.1042","0.082084","149.6"
"5.02995","3614.83","4.15","0.083","150.9"
"5.07326","3620.33","4.1811","0.083622","152.2"
"5.11658","3625.29","4.2248","0.084496","153.5"
"5.15994","3630.67","4.252","0.08504","154.8"
"5.20321","3635.41","4.2909","0.085818","156.1"
"5.24657","3640.17","4.3308","0.086616","157.4"
"5.28998","3645.69","4.3658","0.087316","158.7"
"5.33324","3650.33","4.4029","0.088058","160"
"5.3766","3655.14","4.4446","0.088892","161.3"
"5.41987","3659.45","4.4784","0.089568","162.6"
"5.46323","3664.35","4.5118","0.090236","163.9"
"5.50669","3669.73","4.5478","0.090956","165.2"
"5.54995","3673.9","4.5853","0.091706","166.5"
"5.59327","3678.49","4.6205","0.09241","167.8"
"5.63658","3682.71","4.6547","0.093094","169.1"
"5.67985","3686.74","4.6943","0.093886","170.4"
"5.72326","3691.89","4.7292","0.094584","171.7"
"5.76662","3696.31","4.7569","0.095138","173"
"5.80998","3700.81","4.7933","0.095866","174.3"
"5.85329","3704.9","4.8421","0.096842","175.6"
"5.89652","3708.91","4.8658","0.097316","176.9"
"5.93992","3713.31","4.904","0.09808","178.2"
"5.98328","3717.52","4.9461","0.098922","179.5"
"6.0266","3721.62","4.9794","0.099588","180.8"
"6.06991","3725.94","5.0069","0.100138","182.1"
"6.11323","3729.39","5.0414","0.100828","183.4"
"6.15659","3733.45","5.094","0.10188","184.7"
"6.19995","3737.625","5.1251","0.102502","186"
"6.24331","3723.13","5.1361","0.102722","187.3"
"6.28662","3737.87","5.1818","0.103636","188.6"
"6.32989","3744.05","5.2195","0.10439","189.9"
"6.37321","3748.42","5.2489","0.104978","191.2"
"6.41657","3753.03","5.2814","0.105628","192.5"
"6.45997","3757.05","5.3223","0.106446","193.8"
"6.50329","3760.82","5.368","0.10736","195.1"
"6.54656","3764.05","5.3894","0.107788","196.4"
"6.58992","3767.28","5.424","0.10848","197.7"
"6.63318","3771.14","5.4789","0.109578","199"
"6.67659","3775.21","5.514","0.11028","200.3"
"6.71995","3778.73","5.5412","0.110824","201.6"
"6.76327","3782.14","5.5884","0.111768","202.9"
"6.80658","3784.98","5.6492","0.112984","204.2"
"6.8499","3788.29","5.6588","0.113176","205.5"
"6.89326","3791.96","5.691","0.11382","206.8"
"6.93662","3795.21","5.7571","0.115142","208.1"
"6.97993","3798.13","5.7862","0.115724","209.4"
"7.02325","3801.29","5.806","0.11612","210.7"
"7.06661","3804.61","5.8437","0.116874","212"
"7.10992","3807.65","5.8761","0.117522","213.3"
"7.15328","3810.82","5.912","0.11824","214.6"
"7.19664","3814.16","5.9418","0.118836","215.9"
"7.23991","3817.04","5.9746","0.119492","217.2"
"7.28322","3820.23","6.008","0.12016","218.5"
"7.32654","3823.18","6.0403","0.120806","219.8"
"7.3699","3826.24","6.0724","0.121448","221.1"
"7.41335","3829.33","6.1098","0.122196","222.4"
"7.45662","3832.09","6.1361","0.122722","223.7"
"7.49989","3834.6","6.1721","0.123442","225"
"7.54325","3837.55","6.2073","0.124146","226.3"
"7.58656","3840.15","6.2394","0.124788","227.6"
"7.62997","3843.24","6.2746","0.125492","228.9"
"7.67329","3846.06","6.3068","0.126136","230.2"
"7.7166","3848.34","6.3364","0.126728","231.5"
"7.75991","3851.24","6.3705","0.12741","232.8"
"7.80323","3853.99","6.4043","0.128086","234.1"
"7.84659","3856.93","6.4375","0.12875","235.4"
"7.88995","3859.78","6.4656","0.129312","236.7"
"7.93322","3861.96","6.503","0.13006","238"
"7.97653","3864.55","6.5332","0.130664","239.3"
"8.01989","3867.16","6.5633","0.131266","240.6"
"8.06325","3869.68","6.5996","0.131992","241.9"
"8.10661","3872.54","6.6316","0.132632","243.2"
"8.14997","3875.14","6.6623","0.133246","244.5"
"8.19324","3877.22","6.699","0.13398","245.8"
"8.23656","3879.55","6.7368","0.134736","247.1"
"8.27992","3881.77","6.7637","0.135274","248.4"
"8.32328","3884.65","6.7961","0.135922","249.7"
"8.36664","3887.4","6.8369","0.136738","251"
"8.40995","3889.1","6.8657","0.137314","252.3"
"8.45322","3891.64","6.8979","0.137958","253.6"
"8.49658","3894.31","6.9336","0.138672","254.9"
"8.5399","3896.56","6.9622","0.139244","256.2"
"8.58326","3899.25","6.9981","0.139962","257.5"
"8.62662","3901.3","7.0337","0.140674","258.8"
"8.66989","3903.8","7.0625","0.14125","260.1"
"8.71325","3906.28","7.0977","0.141954","261.4"
"8.75656","3908.39","7.1311","0.142622","262.7"
"8.79997","3910.94","7.1575","0.14315","264"
"8.84328","3913.03","7.1935","0.14387","265.3"
"8.88655","3915.15","7.2263","0.144526","266.6"
"8.92991","3917.31","7.2566","0.145132","267.9"
"8.97323","3919.21","7.2905","0.14581","269.2"
"9.01663","3922.02","7.3237","0.146474","270.5"
"9.05995","3924.15","7.36","0.1472","271.8"
"9.10326","3925.94","7.3922","0.147844","273.1"
"9.14653","3928.15","7.4228","0.148456","274.4"
"9.18984","3930.01","7.4517","0.149034","275.7"
"9.23325","3932.15","7.4886","0.149772","277"
"9.27661","3934.36","7.5189","0.150378","278.3"
"9.31997","3936.7","7.552","0.15104","279.6"
"9.36324","3938.48","7.5859","0.151718","280.9"
"9.40655","3940.55","7.6209","0.152418","282.2"
"9.44996","3942.93","7.6539","0.153078","283.5"
"9.49328","3944.99","7.6843","0.153686","284.8"
"9.53659","3946.74","7.7155","0.15431","286.1"
"9.57995","3948.66","7.7514","0.155028","287.4"
"9.62322","3950.54","7.7832","0.155664","288.7"
"9.66658","3952.53","7.8143","0.156286","290"
"9.70994","3954.59","7.8468","0.156936","291.3"
"9.7533","3956.4","7.8787","0.157574","292.6"
"9.79662","3958.7","7.9108","0.158216","293.9"
"9.83988","3960.1","7.9487","0.158974","295.2"
"9.8832","3962.1","7.9725","0.15945","296.5"
"9.92661","3964.29","8.0069","0.160138","297.8"
"9.96997","3966.34","8.0413","0.160826","299.1"
"10.0133","3967.95","8.0745","0.16149","300.4"
"10.0566","3969.62","8.1093","0.162186","301.7"
"10.0999","3971.19","8.1392","0.162784","303"
"10.1432","3973.23","8.1735","0.16347","304.3"
"10.1866","3975.41","8.2108","0.164216","305.6"
"10.2299","3976.46","8.2404","0.164808","306.9"
"10.2733","3978.83","8.2713","0.165426","308.2"
"10.3166","3980.28","8.3053","0.166106","309.5"
"10.3599","3981.93","8.3412","0.166824","310.8"
"10.4033","3984.13","8.3673","0.167346","312.1"
"10.4466","3985.54","8.3987","0.167974","313.4"
"10.4899","3987.34","8.4304","0.168608","314.7"
"10.5332","3989.07","8.4648","0.169296","316"
"10.5766","3990.46","8.4958","0.169916","317.3"
"10.62","3992.39","8.5348","0.170696","318.6"
"10.6633","3994.24","8.561","0.17122","319.9"
"10.7066","3996.06","8.5954","0.171908","321.2"
"10.7499","3997.32","8.6318","0.172636","322.5"
"10.7932","3998.5","8.6675","0.17335","323.8"
"10.8366","4000.25","8.6944","0.173888","325.1"
"10.8799","4002.33","8.7228","0.174456","326.4"
"10.9233","4003.93","8.7563","0.175126","327.7"
"10.9666","4005.29","8.7864","0.175728","329"
"11.0099","4006.47","8.8244","0.176488","330.3"
"11.0532","4008.37","8.8589","0.177178","331.6"
"11.0966","4010.11","8.8858","0.177716","332.9"
"11.14","4011.91","8.9209","0.178418","334.2"
"11.1833","4013.5","8.9586","0.179172","335.5"
"11.2266","4015.05","8.9837","0.179674","336.8"
"11.2699","4016.12","9.0197","0.180394","338.1"
"11.3132","4017.94","9.0516","0.181032","339.4"
"11.3566","4019.67","9.0831","0.181662","340.7"
"11.3999","4021.18","9.1216","0.182432","342"
"11.4433","4022.51","9.1497","0.182994","343.3"
"11.4866","4023.64","9.1813","0.183626","344.6"
"11.5299","4025.27","9.2119","0.184238","345.9"
"11.5733","4026.76","9.2484","0.184968","347.2"
"11.6167","4028.39","9.2788","0.185576","348.5"
"11.6599","4029.79","9.3171","0.186342","349.8"
"11.7032","4030.85","9.3433","0.186866","351.1"
"11.7465","4032.48","9.3805","0.18761","352.4"
"11.7899","4034.22","9.406","0.18812","353.7"
"11.8333","4035.62","9.4405","0.18881","355"
"11.8766","4037.03","9.47","0.1894","356.3"
"11.9199","4037.84","9.4968","0.189936","357.6"
"11.9632","4039.54","9.5254","0.190508","358.9"
"12.0066","4040.92","9.5533","0.191066","360.2"
"12.0499","4042.27","9.587","0.19174","361.5"
"12.0933","4043.65","9.6147","0.192294","362.8"
"12.1366","4044.86","9.6479","0.192958","364.1"
"12.1799","4046.13","9.6777","0.193554","365.4"
"12.2232","4047.52","9.7061","0.194122","366.7"
"12.2666","4048.77","9.7353","0.194706","368"
"12.31","4050.31","9.7656","0.195312","369.3"
"12.3532","4051.28","9.7977","0.195954","370.6"
"12.3965","4052.62","9.8267","0.196534","371.9"
"12.4399","4054.19","9.8492","0.196984","373.2"
"12.4832","4055.19","9.8874","0.197748","374.5"
"12.5266","4056.83","9.9119","0.198238","375.8"
"12.57","4057.94","9.9471","0.198942","377.1"
"12.6133","4058.88","9.9746","0.199492","378.4"
"12.6566","4060.54","10.0088","0.200176","379.7"
"12.6999","4061.26","10.0335","0.20067","381"
"12.7432","4062.84","10.0624","0.201248","382.3"
"12.7867","4064.36","10.0931","0.201862","383.6"
"12.83","4064.83","10.1276","0.202552","384.9"
"12.8733","4066.18","10.1572","0.203144","386.2"
"12.9165","4067.27","10.1865","0.20373","387.5"
"12.9599","4068.4","10.2184","0.204368","388.8"
"13.0033","4069.74","10.2436","0.204872","390.1"
"13.0466","4070.58","10.2763","0.205526","391.4"
"13.0899","4071.78","10.3062","0.206124","392.7"
"13.1332","4073.01","10.3332","0.206664","394"
"13.1766","4074.12","10.3594","0.207188","395.3"
"13.2199","4075.24","10.3929","0.207858","396.6"
"13.2633","4076.74","10.4224","0.208448","397.9"
"13.3066","4077.49","10.4522","0.209044","399.2"
"13.3499","4078.57","10.4827","0.209654","400.5"
"13.3932","4079.51","10.5111","0.210222","401.8"
"13.4366","4080.56","10.5384","0.210768","403.1"
"13.48","4082.33","10.5709","0.211418","404.4"
"13.5233","4082.76","10.6003","0.212006","405.7"
"13.5666","4083.94","10.6329","0.212658","407"
"13.6099","4084.95","10.6618","0.213236","408.3"
"13.6532","4086.07","10.6888","0.213776","409.6"
"13.6966","4087.28","10.7155","0.21431","410.9"
"13.7399","4088.09","10.7482","0.214964","412.2"
"13.7833","4089.33","10.7762","0.215524","413.5"
"13.8266","4090.26","10.8055","0.21611","414.8"
"13.8699","4091.31","10.833","0.21666","416.1"
"13.9133","4092.48","10.8623","0.217246","417.4"
"13.9566","4093.52","10.8904","0.217808","418.7"
"14","4094.68","10.9218","0.218436","420"
"14.0432","4095.34","10.9515","0.21903","421.3"
"14.0865","4096.15","10.9822","0.219644","422.6"
"14.13","4097.71","11.0139","0.220278","423.9"
"14.1733","4098.5","11.0451","0.220902","425.2"
"14.2166","4099.5","11.0678","0.221356","426.5"
"14.2599","4100.23","11.1015","0.22203","427.8"
"14.3032","4101.1","11.1275","0.22255","429.1"
"14.3466","4102.6","11.1618","0.223236","430.4"
"14.3899","4103.85","11.1847","0.223694","431.7"
"14.4333","4104.7","11.2247","0.224494","433"
"14.4766","4105.31","11.2455","0.22491","434.3"
"14.5199","4106.27","11.2794","0.225588","435.6"
"14.5632","4107.29","11.3109","0.226218","436.9"
"14.6066","4108.38","11.3352","0.226704","438.2"
"14.65","4109.47","11.3707","0.227414","439.5"
"14.6933","4110.52","11.4032","0.228064","440.8"
"14.7366","4111.45","11.4334","0.228668","442.1"
"14.7799","4112.21","11.4587","0.229174","443.4"
"14.8233","4113.45","11.4963","0.229926","444.7"
"14.8666","4114.29","11.5299","0.230598","446"
"14.9099","4115.33","11.5586","0.231172","447.3"
"14.9532","4116.25","11.5881","0.231762","448.6"
"14.9965","4116.68","11.6226","0.232452","449.9"
"15.0399","4118.19","11.6513","0.233026","451.2"
"15.0833","4119.4","11.6834","0.233668","452.5"
"15.1266","4120.22","11.7155","0.23431","453.8"
"15.17","4121.36","11.7486","0.234972","455.1"
"15.2132","4121.77","11.7763","0.235526","456.4"
"15.2565","4123.06","11.807","0.23614","457.7"
"15.2999","4123.99","11.835","0.2367","459"
"15.3433","4124.97","11.8697","0.237394","460.3"
"15.3866","4126.1","11.9052","0.238104","461.6"
"15.4299","4127.1","11.9383","0.238766","462.9"
"15.4732","4127.79","11.9695","0.23939","464.2"
"15.5166","4128.77","11.9968","0.239936","465.5"
"15.5599","4129.56","12.0261","0.240522","466.8"
"15.6033","4130.63","12.0629","0.241258","468.1"
"15.6466","4131.74","12.0966","0.241932","469.4"
"15.6899","4132.22","12.1276","0.242552","470.7"
"15.7332","4132.91","12.158","0.24316","472"
"15.7766","4133.81","12.1938","0.243876","473.3"
"15.82","4134.66","12.2324","0.244648","474.6"
"15.8632","4135.52","12.2656","0.245312","475.9"
"15.9066","4136.21","12.2948","0.245896","477.2"
"15.9499","4137.29","12.3325","0.24665","478.5"
"15.9933","4137.86","12.3692","0.247384","479.8"
"16.0367","4139.1","12.4088","0.248176","481.1"
"16.08","4139.72","12.4424","0.248848","482.4"
"16.1233","4140.41","12.4746","0.249492","483.7"
"16.1666","4141.03","12.5088","0.250176","485"
"16.2099","4141.92","12.5469","0.250938","486.3"
"16.2533","4142.81","12.5761","0.251522","487.6"
"16.2966","4143.92","12.6168","0.252336","488.9"
"16.34","4144.66","12.6547","0.253094","490.2"
"16.3833","4145.29","12.6845","0.25369","491.5"
"16.4265","4145.75","12.722","0.25444","492.8"
"16.4699","4146.56","12.7611","0.255222","494.1"
"16.5133","4148.09","12.7922","0.255844","495.4"
"16.5566","4148.52","12.8251","0.256502","496.7"
"16.5999","4149.08","12.8617","0.257234","498"
"16.6433","4149.96","12.8987","0.257974","499.3"
"16.6866","4150.72","12.9311","0.258622","500.6"
"16.73","4151.96","12.9665","0.25933","501.9"
"16.7733","4152.39","13.0027","0.260054","503.2"
"16.8166","4152.67","13.0382","0.260764","504.5"
"16.8599","4153.74","13.0696","0.261392","505.8"
"16.9032","4154.26","13.1037","0.262074","507.1"
"16.9466","4155.31","13.1362","0.262724","508.4"
"16.99","4156.37","13.173","0.26346","509.7"
"17.0333","4156.9","13.2074","0.264148","511"
"17.0766","4157.41","13.2415","0.26483","512.3"
"17.1199","4158.27","13.2705","0.26541","513.6"
"17.1632","4158.85","13.3129","0.266258","514.9"
"17.2066","4160.05","13.3425","0.26685","516.2"
"17.2499","4160.51","13.3743","0.267486","517.5"
"17.2933","4161.04","13.4167","0.268334","518.8"
"17.3366","4162.06","13.4509","0.269018","520.1"
"17.3799","4162.34","13.48","0.2696","521.4"
"17.4233","4163.71","13.5181","0.270362","522.7"
"17.4666","4163.86","13.546","0.27092","524"
"17.5099","4164.69","13.5851","0.271702","525.3"
"17.5532","4165.38","13.6192","0.272384","526.6"
"17.5965","4165.62","13.6575","0.27315","527.9"
"17.6399","4167.27","13.6877","0.273754","529.2"
"17.6833","4167.78","13.7286","0.274572","530.5"
"17.7266","4168.41","13.7602","0.275204","531.8"
"17.7699","4168.96","13.7886","0.275772","533.1"
"17.8132","4169.53","13.8277","0.276554","534.4"
"17.8566","4170.67","13.8701","0.277402","535.7"
"17.8999","4171.5","13.904","0.27808","537"
"17.9433","4172.34","13.9321","0.278642","538.3"
"17.9866","4172.86","13.973","0.27946","539.6"
"18.0299","4172.96","14.0085","0.28017","540.9"
"18.0733","4173.76","14.0449","0.280898","542.2"
"18.1166","4174.93","14.0776","0.281552","543.5"
"18.1599","4175.49","14.1125","0.28225","544.8"
"18.2033","4176.32","14.1504","0.283008","546.1"
"18.2466","4177.19","14.1875","0.28375","547.4"
"18.2899","4177.99","14.231","0.28462","548.7"
"18.3333","4178.72","14.2684","0.285368","550"
"18.3766","4179.58","14.3048","0.286096","551.3"
"18.42","4180","14.3319","0.286638","552.6"
"18.4632","4180.98","14.377","0.28754","553.9"
"18.5066","4181.25","14.4114","0.288228","555.2"
"18.5499","4182.21","14.4525","0.28905","556.5"
"18.5933","4182.92","14.4937","0.289874","557.8"
"18.6367","4183.57","14.5281","0.290562","559.1"
"18.68","4184.45","14.5494","0.290988","560.4"
"18.7232","4185.1","14.5878","0.291756","561.7"
"18.7666","4185.78","14.6219","0.292438","563"
"18.8099","4186.58","14.6507","0.293014","564.3"
"18.8533","4187.51","14.6848","0.293696","565.6"
"18.8967","4188.36","14.716","0.29432","566.9"
"18.9399","4188.72","14.7448","0.294896","568.2"
"18.9832","4189.44","14.7844","0.295688","569.5"
"19.0266","4190.31","14.8116","0.296232","570.8"
"19.0699","4190.87","14.8466","0.296932","572.1"
"19.1133","4192.24","14.8764","0.297528","573.4"
"19.1566","4192.68","14.9111","0.298222","574.7"
"19.1999","4193.04","14.9449","0.298898","576"
"19.2433","4194.22","14.9749","0.299498","577.3"
"19.2866","4194.95","15.005","0.3001","578.6"
"19.3299","4195.81","15.0419","0.300838","579.9"
"19.3733","4196.41","15.0782","0.301564","581.2"
"19.4165","4196.57","15.1112","0.302224","582.5"
"19.4599","4197.91","15.1391","0.302782","583.8"
"19.5032","4198.71","15.171","0.30342","585.1"
"19.5467","4199.46","15.1983","0.303966","586.4"
"19.59","4200.58","15.231","0.30462","587.7"
"19.6332","4200.57","15.2667","0.305334","589"
"19.6766","4201.41","15.2945","0.30589","590.3"
"19.7199","4202.31","15.3258","0.306516","591.6"
"19.7632","4202.91","15.3638","0.307276","592.9"
"19.8066","4204.04","15.3942","0.307884","594.2"
"19.85","4204.65","15.4277","0.308554","595.5"
"19.8933","4204.78","15.452","0.30904","596.8"
"19.9366","4205.87","15.4903","0.309806","598.1"
"19.9799","4206.47","15.5199","0.310398","599.4"
"20.0233","4207.29","15.5501","0.311002","600.7"
"20.0666","4208.19","15.5811","0.311622","602"
"20.1099","4208.46","15.6132","0.312264","603.3"
"20.1532","4209.42","15.6393","0.312786","604.6"
"20.1966","4210.22","15.6768","0.313536","605.9"
"20.2399","4210.72","15.7121","0.314242","607.2"
"20.2833","4212.01","15.738","0.31476","608.5"
"20.3266","4211.99","15.7744","0.315488","609.8"
"20.3699","4212.67","15.8021","0.316042","611.1"
"20.4132","4213.88","15.8259","0.316518","612.4"
"20.4566","4214.45","15.8648","0.317296","613.7"
"20.5","4215.45","15.8862","0.317724","615"
"20.5433","4215.92","15.9256","0.318512","616.3"
"20.5866","4216.41","15.96","0.3192","617.6"
"20.6299","4217.18","15.9813","0.319626","618.9"
"20.6732","4218.19","16.0216","0.320432","620.2"
"20.7166","4218.72","16.0497","0.320994","621.5"
"20.7599","4219.53","16.0772","0.321544","622.8"
"20.8033","4220.03","16.1171","0.322342","624.1"
"20.8466","4220.77","16.1422","0.322844","625.4"
"20.8899","4221.44","16.179","0.32358","626.7"
"20.9333","4222.21","16.2105","0.32421","628"
"20.9766","4223.13","16.2358","0.324716","629.3"
"21.0199","4223.67","16.2734","0.325468","630.6"
"21.0632","4224.41","16.3117","0.326234","631.9"
"21.1065","4225.05","16.3432","0.326864","633.2"
"21.15","4226.21","16.3681","0.327362","634.5"
"21.1933","4226.46","16.4037","0.328074","635.8"
"21.2366","4226.89","16.442","0.32884","637.1"
"21.2799","4228.06","16.4716","0.329432","638.4"
"21.3232","4228.18","16.4967","0.329934","639.7"
"21.3666","4228.94","16.5356","0.330712","641"
"21.41","4229.77","16.5657","0.331314","642.3"
"21.4533","4230.26","16.5978","0.331956","643.6"
"21.4966","4230.78","16.6385","0.33277","644.9"
"21.5399","4231.55","16.661","0.33322","646.2"
"21.5832","4232.09","16.7017","0.334034","647.5"
"21.6266","4232.81","16.7343","0.334686","648.8"
"21.6699","4233.42","16.7692","0.335384","650.1"
"21.7133","4234.29","16.8014","0.336028","651.4"
"21.7566","4234.88","16.8325","0.33665","652.7"
"21.7999","4235.12","16.8688","0.337376","654"
"21.8432","4236.05","16.9058","0.338116","655.3"
"21.8867","4236.51","16.9325","0.33865","656.6"
"21.93","4237.11","16.9657","0.339314","657.9"
"21.9732","4237.44","17.0024","0.340048","659.2"
"22.0165","4237.84","17.0358","0.340716","660.5"
"22.0599","4238.6","17.0626","0.341252","661.8"
"22.1033","4239.66","17.1052","0.342104","663.1"
"22.1466","4239.86","17.1402","0.342804","664.4"
"22.1899","4240.75","17.1724","0.343448","665.7"
"22.2333","4240.61","17.2043","0.344086","667"
"22.2765","4241.2","17.2437","0.344874","668.3"
"22.3199","4242.22","17.2827","0.345654","669.6"
"22.3633","4242.67","17.3069","0.346138","670.9"
"22.4066","4243.15","17.3346","0.346692","672.2"
"22.4499","4243.73","17.3832","0.347664","673.5"
"22.4932","4243.91","17.4179","0.348358","674.8"
"22.5366","4244.6","17.4511","0.349022","676.1"
"22.58","4245.17","17.4824","0.349648","677.4"
"22.6233","4245.57","17.5191","0.350382","678.7"
"22.6666","4245.99","17.5594","0.351188","680"
"22.7099","4246.13","17.5979","0.351958","681.3"
"22.7533","4246.94","17.629","0.35258","682.6"
"22.7966","4247.17","17.6629","0.353258","683.9"
"22.84","4247.96","17.704","0.35408","685.2"
"22.8833","4248.09","17.7271","0.354542","686.5"
"22.9266","4248.66","17.7684","0.355368","687.8"
"22.9699","4249.08","17.8051","0.356102","689.1"
"23.0132","4249.65","17.8325","0.35665","690.4"
"23.0567","4250.22","17.8711","0.357422","691.7"
"23.1","4250.63","17.9076","0.358152","693"
"23.1432","4250.8","17.935","0.3587","694.3"
"23.1866","4251.35","17.9635","0.35927","695.6"
"23.2299","4251.94","18.004","0.36008","696.9"
"23.2733","4252.22","18.0285","0.36057","698.2"
"23.3166","4253.02","18.0769","0.361538","699.5"
"23.3599","4253.17","18.1044","0.362088","700.8"
"23.4033","4253.29","18.1403","0.362806","702.1"
"23.4466","4254.25","18.1698","0.363396","703.4"
"23.4899","4254.67","18.2055","0.36411","704.7"
"23.5333","4255.14","18.2447","0.364894","706"
"23.5766","4255.55","18.2745","0.36549","707.3"
"23.6199","4255.8","18.313","0.36626","708.6"
"23.6632","4256.54","18.3532","0.367064","709.9"
"23.7066","4257.1","18.3794","0.367588","711.2"
"23.75","4257.71","18.4112","0.368224","712.5"
"23.7933","4257.95","18.4506","0.369012","713.8"
"23.8366","4258.07","18.4842","0.369684","715.1"
"23.8799","4258.54","18.5184","0.370368","716.4"
"23.9232","4259.13","18.5595","0.37119","717.7"
"23.9666","4259.69","18.5885","0.37177","719"
"24.01","4260.48","18.6275","0.37255","720.3"
"24.0532","4260.61","18.6595","0.37319","721.6"
"24.0966","4260.82","18.6873","0.373746","722.9"
"24.1399","4261.37","18.7336","0.374672","724.2"
"24.1832","4261.74","18.7674","0.375348","725.5"
"24.2266","4262.33","18.7951","0.375902","726.8"
"24.27","4263.15","18.8306","0.376612","728.1"
"24.3132","4263.36","18.8828","0.377656","729.4"
"24.3566","4263.98","18.9123","0.378246","730.7"
"24.3999","4264.29","18.9424","0.378848","732"
"24.4433","4265.11","18.9742","0.379484","733.3"
"24.4866","4265.77","19.0187","0.380374","734.6"
"24.5299","4265.67","19.058","0.38116","735.9"
"24.5732","4266.11","19.0861","0.381722","737.2"
"24.6166","4266.31","19.1248","0.382496","738.5"
"24.66","4267.05","19.158","0.38316","739.8"
"24.7033","4267.71","19.1972","0.383944","741.1"
"24.7466","4267.91","19.2354","0.384708","742.4"
"24.7899","4268.2","19.2697","0.385394","743.7"
"24.8332","4268.91","19.2998","0.385996","745"
"24.8765","4268.84","19.3406","0.386812","746.3"
"24.92","4269.59","19.3826","0.387652","747.6"
"24.9633","4270.5","19.4135","0.38827","748.9"
"25.0066","4270.5","19.4575","0.38915","750.2"
"25.0499","4270.79","19.5006","0.390012","751.5"
"25.0933","4271.19","19.5337","0.390674","752.8"
"25.1366","4272.04","19.5814","0.391628","754.1"
"25.1799","4272.54","19.6121","0.392242","755.4"
"25.2233","4272.27","19.6529","0.393058","756.7"
"25.2666","4272.9","19.7092","0.394184","758"
"25.3099","4273.14","19.7534","0.395068","759.3"
"25.3533","4273.82","19.7862","0.395724","760.6"
"25.3966","4274.45","19.8246","0.396492","761.9"
"25.44","4274.44","19.8494","0.396988","763.2"
"25.4832","4274.9","19.8839","0.397678","764.5"
"25.5265","4275.49","19.9263","0.398526","765.8"
"25.5699","4276.01","19.9607","0.399214","767.1"
"25.6133","4276.48","19.9923","0.399846","768.4"
"25.6566","4276.79","20.0226","0.400452","769.7"
"25.6999","4277.2","20.0641","0.401282","771"
"25.7432","4277.58","20.0928","0.401856","772.3"
"25.7866","4277.92","20.1334","0.402668","773.6"
"25.8299","4278.71","20.1601","0.403202","774.9"
"25.8733","4279.07","20.1932","0.403864","776.2"
"25.9166","4279.45","20.2352","0.404704","777.5"
"25.9599","4279.73","20.2757","0.405514","778.8"
"26.0032","4279.79","20.302","0.40604","780.1"
"26.0466","4280.77","20.3461","0.406922","781.4"
"26.0899","4281.1","20.3804","0.407608","782.7"
"26.1333","4281.34","20.4092","0.408184","784"
"26.1766","4282.15","20.4552","0.409104","785.3"
"26.2198","4282.34","20.4819","0.409638","786.6"
"26.2633","4282.99","20.5196","0.410392","787.9"
"26.3066","4283.48","20.545","0.4109","789.2"
"26.35","4283.9","20.5761","0.411522","790.5"
"26.3933","4284.33","20.6272","0.412544","791.8"
"26.4365","4284.42","20.6506","0.413012","793.1"
"26.4799","4284.88","20.6871","0.413742","794.4"
"26.5233","4285.74","20.7319","0.414638","795.7"
"26.5666","4285.67","20.7715","0.41543","797"
"26.61","4286.24","20.7989","0.415978","798.3"
"26.6532","4286.53","20.8245","0.41649","799.6"
"26.6965","4287","20.8701","0.417402","800.9"
"26.7399","4287.33","20.9131","0.418262","802.2"
"26.7833","4288.22","20.9364","0.418982","803.5"
"26.8266","4288.51","20.9802","0.419604","804.8"
"26.8699","4288.87","21.013","0.42026","806.1"
"26.9132","4288.7","21.0417","0.420834","807.4"
"26.9566","4289.44","21.0919","0.421838","808.7"
"27","4290.17","21.1288","0.422576","810"
"27.0433","4290.27","21.161","0.42322","811.3"
"27.0866","4290.96","21.2056","0.424112","812.6"
"27.1299","4291","21.2393","0.424786","813.9"
"27.1732","4291.65","21.2777","0.425554","815.2"
"27.2166","4291.99","21.308","0.42616","816.5"
"27.2599","4292.37","21.3551","0.427102","817.8"
"27.3033","4293.03","21.3954","0.427908","819.1"
"27.3466","4293.16","21.4348","0.428668","820.4"
"27.3898","4292.99","21.4776","0.429552","821.7"
"27.4332","4293.76","21.5038","0.430076","823"
"27.4766","4294.44","21.5387","0.430774","824.3"
"27.52","4294.84","21.5725","0.43145","825.6"
"27.5633","4295.05","21.6137","0.432274","826.9"
"27.6066","4294.99","21.642","0.43284","828.2"
"27.6499","4295.94","21.6854","0.433708","829.5"
"27.6932","4296.14","21.7135","0.43427","830.8"
"27.7366","4296.81","21.757","0.43514","832.1"
"27.78","4297.08","21.7942","0.435884","833.4"
"27.8233","4297.26","21.8274","0.436548","834.7"
"27.8666","4297.69","21.8517","0.437034","836"
"27.9099","4298.18","21.9021","0.438042","837.3"
"27.9533","4298.68","21.9248","0.438496","838.6"
"27.9966","4299.04","21.9567","0.439134","839.9"
"28.0399","4298.73","21.9991","0.439982","841.2"
"28.0832","4299.6","22.0397","0.440794","842.5"
"28.1266","4299.98","22.0809","0.441618","843.8"
"28.17","4300.51","22.1064","0.442128","845.1"
"28.2133","4300.98","22.1455","0.44291","846.4"
"28.2566","4300.98","22.1736","0.443472","847.7"
"28.2999","4301.59","22.2218","0.444436","849"
"28.3432","4301.84","22.2542","0.445084","850.3"
"28.3866","4302.04","22.2939","0.445878","851.6"
"28.43","4302.55","22.3075","0.44615","852.9"
"28.4733","4302.99","22.3563","0.447126","854.2"
"28.5166","4303","22.39","0.4478","855.5"
"28.5599","4303.66","22.4224","0.448448","856.8"
"28.6033","4303.77","22.4574","0.449148","858.1"
"28.6466","4304.31","22.4929","0.449858","859.4"
"28.69","4304.78","22.5162","0.450324","860.7"
"28.7332","4304.88","22.5691","0.451382","862"
"28.7766","4305.29","22.598","0.45196","863.3"
"28.8199","4305.6","22.6349","0.452698","864.6"
"28.8633","4306.16","22.6784","0.453568","865.9"
"28.9066","4306.5","22.7113","0.454226","867.2"
"28.9499","4306.74","22.7341","0.454682","868.5"
"28.9932","4306.9","22.7714","0.455428","869.8"
"29.0366","4307.51","22.8033","0.456066","871.1"
"29.0799","4307.56","22.8484","0.456968","872.4"
"29.1233","4307.85","22.8808","0.457616","873.7"
"29.1667","4308.34","22.9121","0.458242","875"
"29.2099","4308.52","22.9546","0.459092","876.3"
"29.2532","4309.06","22.9856","0.459712","877.6"
"29.2966","4309.12","23.0193","0.460386","878.9"
"29.3399","4309.94","23.0549","0.461098","880.2"
"29.3833","4310.2","23.0969","0.461938","881.5"
"29.4266","4310.49","23.1333","0.462666","882.8"
"29.4699","4311.04","23.1678","0.463356","884.1"
"29.5132","4310.95","23.2021","0.464042","885.4"
"29.5566","4311.57","23.2333","0.464666","886.7"
"29.5999","4311.66","23.266","0.46532","888"
"29.6433","4312.02","23.307","0.46614","889.3"
"29.6866","4312.52","23.3469","0.466938","890.6"
"29.7299","4312.59","23.3857","0.467714","891.9"
"29.7733","4312.95","23.4063","0.468126","893.2"
"29.8166","4313.5","23.4372","0.468744","894.5"
"29.86","4313.53","23.4844","0.469688","895.8"
"29.9032","4313.69","23.5143","0.470286","897.1"
"29.9465","4314.15","23.5527","0.471054","898.4"
"29.9899","4314.4","23.5798","0.471596","899.7"
"30.0332","4314.81","23.6178","0.472356","901"
"30.0766","4315.36","23.646","0.47292","902.3"
"30.1199","4315.71","23.6841","0.473682","903.6"
"30.1632","4315.84","23.7232","0.474464","904.9"
"30.2066","4316.03","23.7526","0.475052","906.2"
"30.2499","4316.5","23.7908","0.475816","907.5"
"30.2933","4317.14","23.8168","0.476336","908.8"
"30.3366","4317.55","23.8517","0.477034","910.1"
"30.3799","4317.75","23.8912","0.477824","911.4"
"30.4232","4317.65","23.9303","0.478606","912.7"
"30.4666","4318.1","23.9563","0.479126","914"
"30.5099","4318.84","24.0009","0.480018","915.3"
"30.5533","4318.76","24.037","0.48074","916.6"
"30.5966","4319.15","24.0651","0.481302","917.9"
"30.6399","4317.54","24.107","0.48214","919.2"
"30.6832","4318.1","24.1328","0.482656","920.5"
"30.7266","4319.04","24.1732","0.483464","921.8"
"30.7699","4318.98","24.2143","0.484286","923.1"
"30.8133","4319.31","24.2469","0.484938","924.4"
"30.8566","4319.82","24.2754","0.485508","925.7"
"30.8999","4319.85","24.3168","0.486336","927"
"30.9432","4320.59","24.3585","0.48717","928.3"
"30.9866","4320.79","24.3886","0.487772","929.6"
"31.03","4320.76","24.4329","0.488658","930.9"
"31.0733","4321.38","24.4623","0.489246","932.2"
"31.1165","4321.56","24.4918","0.489836","933.5"
"31.1599","4322.21","24.5349","0.490698","934.8"
"31.2032","4322.61","24.5805","0.49161","936.1"
"31.2466","4322.82","24.6094","0.492188","937.4"
"31.2899","4323.08","24.6343","0.492686","938.7"
"31.3332","4323.08","24.6915","0.49383","940"
"31.3766","4323.72","24.7205","0.49441","941.3"
"31.4199","4324.17","24.7586","0.495172","942.6"
"31.4633","4324.45","24.7979","0.495958","943.9"
"31.5066","4324.97","24.8246","0.496492","945.2"
"31.5499","4325.11","24.8748","0.497496","946.5"
"31.5932","4325.18","24.919","0.49838","947.8"
"31.6366","4325.96","24.9483","0.498966","949.1"
"31.68","4326.15","24.9976","0.499952","950.4"
"31.7233","4326.45","25.036","0.50072","951.7"
"31.7666","4326.52","25.0873","0.501746","953"
"31.8099","4326.67","25.1249","0.502498","954.3"
"31.8532","4327.23","25.1569","0.503138","955.6"
"31.8966","4327.47","25.196","0.50392","956.9"
"31.9399","4327.92","25.2406","0.504812","958.2"
"31.9833","4328.4","25.2742","0.505484","959.5"
"32.0266","4328.47","25.3125","0.50625","960.8"
"32.0699","4328.76","25.3519","0.507038","962.1"
"32.1132","4329.21","25.3908","0.507816","963.4"
"32.1566","4329.58","25.4356","0.508712","964.7"
"32.1999","4329.75","25.4571","0.509142","966"
"32.2433","4330.05","25.4934","0.509868","967.3"
"32.2866","4330.11","25.5186","0.510372","968.6"
"32.33","4330.72","25.5731","0.511462","969.9"
"32.3733","4330.5","25.6059","0.512118","971.2"
"32.4166","4330.99","25.6493","0.512986","972.5"
"32.4599","4331.48","25.676","0.51352","973.8"
"32.5032","4331.04","25.7157","0.514314","975.1"
"32.5465","4331.58","25.7547","0.515094","976.4"
"32.5899","4331.92","25.7756","0.515512","977.7"
"32.6333","4332.63","25.8229","0.516458","979"
"32.6766","4332.84","25.8647","0.517294","980.3"
"32.7199","4332.96","25.8823","0.517646","981.6"
"32.7632","4333.36","25.9261","0.518522","982.9"
"32.8066","4333.54","25.9626","0.519252","984.2"
"32.85","4334.29","26.0057","0.520114","985.5"
"32.8933","4334.42","26.019","0.52038","986.8"
"32.9366","4334.36","26.0568","0.521136","988.1"
"32.9799","4334.71","26.1001","0.522002","989.4"
"33.0232","4335","26.1272","0.522544","990.7"
"33.0666","4335.39","26.1666","0.523332","992"
"33.1099","4335.76","26.1966","0.523932","993.3"
"33.1533","4335.95","26.2283","0.524566","994.6"
"33.1966","4335.98","26.2687","0.525374","995.9"
"33.2399","4336.31","26.3094","0.526188","997.2"
"33.2833","4336.74","26.3427","0.526854","998.5"
"33.3266","4337.23","26.3674","0.527348","999.8"
"33.3699","4336.96","26.3994","0.527988","1001.1"
"33.4132","4337.21","26.444","0.52888","1002.4"
"33.4565","4337.5","26.4722","0.529444","1003.7"
"33.4999","4337.95","26.5025","0.53005","1005"
"33.5433","4338.45","26.546","0.53092","1006.3"
"33.5867","4338.5","26.5671","0.531342","1007.6"
"33.6299","4338.54","26.6083","0.532166","1008.9"
"33.6733","4338.63","26.6475","0.53295","1010.2"
"33.7166","4339.1","26.6813","0.533626","1011.5"
"33.7599","4339.35","26.7052","0.534104","1012.8"
"33.8033","4339.85","26.755","0.5351","1014.1"
"33.8466","4339.79","26.7755","0.53551","1015.4"
"33.8899","4340.04","26.8235","0.53647","1016.7"
"33.9332","4340.07","26.8628","0.537256","1018"
"33.9765","4340.27","26.8881","0.537762","1019.3"
"34.02","4340.77","26.9318","0.538636","1020.6"
"34.0633","4340.99","26.971","0.53942","1021.9"
"34.1066","4340.9","27.0095","0.54019","1023.2"
"34.1499","4341.59","27.0367","0.540734","1024.5"
"34.1932","4341.38","27.0795","0.54159","1025.8"
"34.2366","4341.66","27.1159","0.542318","1027.1"
"34.28","4342.11","27.1456","0.542912","1028.4"
"34.3233","4342.25","27.1895","0.54379","1029.7"
"34.3666","4342.46","27.2304","0.544608","1031"
"34.4099","4342.32","27.259","0.54518","1032.3"
"34.4532","4342.85","27.287","0.54574","1033.6"
"34.4966","4343.45","27.3228","0.546456","1034.9"
"34.54","4343.29","27.3535","0.54707","1036.2"
"34.5833","4343.77","27.39","0.5478","1037.5"
"34.6265","4343.5","27.4227","0.548454","1038.8"
"34.6699","4343.98","27.4583","0.549166","1040.1"
"34.7132","4344.22","27.486","0.54972","1041.4"
"34.7566","4344.58","27.5209","0.550418","1042.7"
"34.7999","4344.62","27.5503","0.551006","1044"
"34.8433","4344.79","27.5908","0.551816","1045.3"
"34.8866","4344.92","27.6261","0.552522","1046.6"
"34.9299","4345.04","27.6539","0.553078","1047.9"
"34.9733","4345.48","27.6889","0.553778","1049.2"
"35.0166","4345.69","27.7271","0.554542","1050.5"
"35.0599","4345.66","27.7571","0.555142","1051.8"
"35.1032","4345.81","27.792","0.55584","1053.1"
"35.1466","4346.14","27.824","0.55648","1054.4"
"35.19","4346.52","27.8557","0.557114","1055.7"
"35.2333","4346.7","27.888","0.55776","1057"
"35.2766","4346.87","27.92","0.5584","1058.3"
"35.3199","4346.75","27.9585","0.55917","1059.6"
"35.3632","4347.05","27.9866","0.559732","1060.9"
"35.4066","4347.05","28.0243","0.560486","1062.2"
"35.4499","4347.7","28.0584","0.561168","1063.5"
"35.4933","4348.17","28.0979","0.561958","1064.8"
"35.5366","4348","28.1278","0.562556","1066.1"
"35.5799","4348.11","28.1683","0.563366","1067.4"
"35.6233","4348.55","28.1922","0.563844","1068.7"
"35.6666","4348.64","28.2325","0.56465","1070"
"35.71","4349.3","28.2738","0.565476","1071.3"
"35.7532","4348.89","28.3031","0.566062","1072.6"
"35.7965","4349.2","28.338","0.56676","1073.9"
"35.8399","4350.01","28.3756","0.567512","1075.2"
"35.8833","4349.75","28.4271","0.568542","1076.5"
"35.9266","4350.4","28.468","0.56936","1077.8"
"35.9699","4350.37","28.493","0.56986","1079.1"
"36.0132","4350.07","28.5475","0.57095","1080.4"
"36.0566","4350.71","28.593","0.57186","1081.7"
"36.0999","4350.84","28.6461","0.572922","1083"
"36.1433","4351.57","28.6898","0.573796","1084.3"
"36.1866","4351.63","28.7397","0.574794","1085.6"
"36.2299","4351.38","28.8187","0.576374","1086.9"
"36.2732","4351.85","28.876","0.57752","1088.2"
"36.3166","4351.95","28.9121","0.578242","1089.5"
"36.36","4352.29","28.9763","0.579526","1090.8"
"36.4033","4352.54","29.0415","0.58083","1092.1"
"36.4466","4352.77","29.0796","0.581592","1093.4"
"36.4899","4352.79","29.1282","0.582564","1094.7"
"36.5332","4353.11","29.1934","0.583868","1096"
"36.5766","4353.375","29.2329","0.584658","1097.3"
"36.6199","4353.82","29.2888","0.585776","1098.6"
"36.6632","4353.78","29.3098","0.586196","1099.9"
"36.7066","4353.51","29.3426","0.586852","1101.2"
"36.7499","4354.07","29.3777","0.587554","1102.5"
"36.7933","4354.3","29.4173","0.588346","1103.8"
"36.8366","4354.55","29.439","0.58878","1105.1"
"36.88","4354.85","29.4799","0.589598","1106.4"
"36.9233","4354.75","29.5075","0.59015","1107.7"
"36.9665","4355.04","29.5433","0.590866","1109"
"37.0099","4355.27","29.5771","0.591542","1110.3"
"37.0533","4355.53","29.6035","0.59207","1111.6"
"37.0966","4355.97","29.6446","0.592892","1112.9"
"37.1399","4355.95","29.6711","0.593422","1114.2"
"37.1832","4356.05","29.7061","0.594122","1115.5"
"37.2266","4356.4","29.7316","0.594632","1116.8"
"37.2699","4356.35","29.7649","0.595298","1118.1"
"37.3133","4356.85","29.8057","0.596114","1119.4"
"37.3566","4356.76","29.8373","0.596746","1120.7"
"37.4","4357.03","29.8669","0.597338","1122"
"37.4432","4357.33","29.91","0.5982","1123.3"
"37.4866","4357.19","29.9353","0.59876","1124.6"
"37.53","4357.75","29.9717","0.599434","1125.9"
"37.5733","4357.65","30.0028","0.600056","1127.2"
"37.6166","4357.89","30.0383","0.600766","1128.5"
"37.6599","4358","30.0771","0.601542","1129.8"
"37.7032","4357.77","30.1165","0.60233","1131.1"
"37.7467","4358.59","30.1544","0.603088","1132.4"
"37.7899","4358.52","30.1917","0.603834","1133.7"
"37.8332","4358.27","30.2217","0.604434","1135"
"37.8766","4358.48","30.2573","0.605146","1136.3"
"37.9198","4358.67","30.3023","0.606046","1137.6"
"37.9632","4358.86","30.3456","0.606912","1138.9"
"38.0066","4359.07","30.3727","0.607454","1140.2"
"38.05","4359.05","30.4181","0.608362","1141.5"
"38.0933","4359.65","30.452","0.60904","1142.8"
"38.1365","4359.32","30.4947","0.609894","1144.1"
"38.1799","4359.48","30.5337","0.610674","1145.4"
"38.2233","4359.93","30.5714","0.611428","1146.7"
"38.2666","4359.75","30.6179","0.612358","1148"
"38.3099","4359.92","30.6504","0.613008","1149.3"
"38.3532","4360.22","30.7021","0.614042","1150.6"
"38.3966","4359.9","30.7456","0.614912","1151.9"
"38.4399","4360.5","30.7795","0.61559","1153.2"
"38.4833","4360.62","30.8448","0.616896","1154.5"
"38.5266","4360.69","30.8863","0.617726","1155.8"
"38.5699","4360.96","30.9237","0.618474","1157.1"
"38.6132","4360.87","30.9733","0.619466","1158.4"
"38.6566","4361.1","31.0089","0.620178","1159.7"
"38.7","4361.23","31.0452","0.620904","1161"
"38.7433","4361.3","31.099","0.62198","1162.3"
"38.7866","4361.44","31.1378","0.622756","1163.6"
"38.8299","4361.51","31.1733","0.623466","1164.9"
"38.8732","4361.58","31.2132","0.624264","1166.2"
"38.9166","4361.9","31.2578","0.625156","1167.5"
"38.96","4361.93","31.2852","0.625704","1168.8"
"39.0033","4362.15","31.3139","0.626278","1170.1"
"39.0466","4361.95","31.3533","0.627066","1171.4"
"39.0899","4361.9","31.3916","0.627832","1172.7"
"39.1332","4362.2","31.4238","0.628476","1174"
"39.1766","4362.52","31.4687","0.629374","1175.3"
"39.2199","4362.6","31.5033","0.630066","1176.6"
"39.2632","4362.65","31.5377","0.630754","1177.9"
"39.3066","4362.84","31.5835","0.63167","1179.2"
"39.3499","4363.31","31.6231","0.632462","1180.5"
"39.3933","4363.15","31.6515","0.63303","1181.8"
"39.4367","4363.33","31.688","0.63376","1183.1"
"39.4799","4363.16","31.7258","0.634516","1184.4"
"39.5232","4363.15","31.759","0.63518","1185.7"
"39.5666","4363.52","31.7955","0.63591","1187"
"39.6099","4363.83","31.8435","0.63687","1188.3"
"39.6533","4363.85","31.8613","0.637226","1189.6"
"39.6966","4364.15","31.9024","0.638048","1190.9"
"39.7399","4363.67","31.9544","0.639088","1192.2"
"39.7833","4364.2","31.9857","0.639714","1193.5"
"39.8265","4364.48","32.0281","0.640562","1194.8"
"39.8699","4364.62","32.0822","0.641644","1196.1"
"39.9133","4364.86","32.1042","0.6419","1197.4"
"39.9566","4364.71","32.134","0.64268","1198.7"
"39.9999","4365.1","32.1776","0.643552","1200"
"40.0432","4365.09","32.222","0.64444","1201.3"
"40.0866","4365.1","32.26","0.6452","1202.6"
"40.13","4365.04","32.2875","0.64575","1203.9"
"40.1732","4365.45","32.3317","0.646634","1205.2"
"40.2166","4365.23","32.3574","0.647148","1206.5"
"40.2599","4365.57","32.4103","0.648206","1207.8"
"40.3033","4365.29","32.4605","0.64921","1209.1"
"40.3466","4365.21","32.4867","0.649734","1210.4"
"40.3899","4365.71","32.5218","0.650436","1211.7"
"40.4332","4365.33","32.574","0.65148","1213"
"40.4765","4365.54","32.5968","0.651936","1214.3"
"40.5199","4365.53","32.6244","0.652488","1215.6"
"40.5633","4365.84","32.6609","0.653218","1216.9"
"40.6067","4366.07","32.699","0.65398","1218.2"
"40.6499","4365.78","32.7195","0.65439","1219.5"
"40.6932","4365.69","32.7687","0.655374","1220.8"
"40.7366","4366.09","32.7943","0.655886","1222.1"
"40.7799","4366.16","32.852","0.65704","1223.4"
"40.8233","4366.34","32.879","0.65758","1224.7"
"40.8666","4366.26","32.9228","0.658456","1226"
"40.9099","4366.02","32.9639","0.659278","1227.3"
"40.9533","4366.42","33.012","0.66024","1228.6"
"40.9966","4366.3","33.0571","0.661142","1229.9"
"41.0399","4366.79","33.0891","0.661782","1231.2"
"41.0833","4366.87","33.124","0.66248","1232.5"
"41.1266","4366.44","33.179","0.66358","1233.8"
"41.1699","4366.76","33.2151","0.664302","1235.1"
"41.2132","4367.02","33.2519","0.665038","1236.4"
"41.2567","4367.25","33.2874","0.665634","1237.7"
"41.3","4367.22","33.3187","0.666374","1239"
"41.3433","4367.01","33.3652","0.667304","1240.3"
"41.3865","4367.22","33.4008","0.668016","1241.6"
"41.4299","4367.2","33.4379","0.668758","1242.9"
"41.4733","4367.3","33.4704","0.669408","1244.2"
"41.5166","4367.56","33.5316","0.670632","1245.5"
"41.56","4367.74","33.5693","0.671386","1246.8"
"41.6033","4367.58","33.5943","0.671886","1248.1"
"41.6465","4367.49","33.6437","0.672874","1249.4"
"41.6899","4367.6","33.672","0.67344","1250.7"
"41.7333","4367.73","33.737","0.67474","1252"
"41.7766","4367.59","33.7577","0.675154","1253.3"
"41.8199","4367.58","33.802","0.67604","1254.6"
"41.8632","4367.59","33.8314","0.676628","1255.9"
"41.9066","4367.72","33.8768","0.677536","1257.2"
"41.95","4367.58","33.9157","0.678314","1258.5"
"41.9933","4367.85","33.9631","0.679262","1259.8"
"42.0366","4365.97","34.0087","0.680174","1261.1"
"42.0799","4365.84","34.0306","0.680612","1262.4"
"42.1232","4365.69","34.0697","0.681394","1263.7"
"42.1666","4363.83","34.1128","0.682256","1265"
"42.21","4363.95","34.1489","0.682978","1266.3"
"42.2533","4363.44","34.1767","0.683534","1267.6"
"42.2966","4363.35","34.2095","0.68419","1268.9"
"42.3399","4363.31","34.2493","0.684986","1270.2"
"42.3832","4363.41","34.2753","0.685506","1271.5"
"42.4266","4363.54","34.3091","0.686182","1272.8"
"42.4699","4363.38","34.3444","0.686888","1274.1"
"42.5133","4362.65","34.3612","0.687224","1275.4"
"42.5565","4361.69","34.3945","0.68789","1276.7"
"42.5999","4361.49","34.4332","0.688664","1278"
"42.6433","4361.95","34.4544","0.689088","1279.3"
"42.6866","4361.78","34.4866","0.689732","1280.6"
"42.7299","4361.45","34.5193","0.690386","1281.9"
"42.7733","4361.37","34.5562","0.691124","1283.2"
"42.8166","4361.28","34.583","0.69166","1284.5"
"42.8599","4361.15","34.6066","0.692132","1285.8"
"42.9033","4361","34.6427","0.692854","1287.1"
"42.9466","4360.47","34.6797","0.693594","1288.4"
"42.9899","4360.46","34.7056","0.694112","1289.7"
"43.0332","4360.06","34.7451","0.694902","1291"
"43.0765","4359.95","34.7657","0.695314","1292.3"
"43.12","4360.15","34.8108","0.696216","1293.6"
"43.1633","4359.49","34.8287","0.696574","1294.9"
"43.2066","4359.53","34.8598","0.697196","1296.2"
"43.2499","4359.19","34.8878","0.697756","1297.5"
"43.2932","4359.09","34.9297","0.698594","1298.8"
"43.3366","4358.68","34.9446","0.698892","1300.1"
"43.38","4357.8","34.9759","0.699518","1301.4"
"43.4233","4357.28","35.0234","0.700468","1302.7"
"43.4666","4355.86","35.054","0.70108","1304"
"43.5099","4355.57","35.0768","0.701536","1305.3"
"43.5532","4354.07","35.108","0.70216","1306.6"
"43.5966","4353.71","35.1375","0.70275","1307.9"
"43.6399","4352.77","35.1646","0.703292","1309.2"
"43.6832","4352.12","35.1943","0.703886","1310.5"
"43.7265","4351.06","35.2261","0.704522","1311.8"
"43.7699","4350.99","35.2506","0.705012","1313.1"
"43.8133","4350.41","35.2888","0.705776","1314.4"
"43.8566","4349.42","35.3089","0.706178","1315.7"
"43.8999","4346.89","35.3285","0.70657","1317"
"43.9433","4344.9","35.3643","0.707286","1318.3"
"43.9865","4344.01","35.3941","0.707882","1319.6"
"44.0299","4342.03","35.4183","0.708366","1320.9"
"44.0733","4340.02","35.4449","0.708898","1322.2"
"44.1166","4339.54","35.4727","0.709454","1323.5"
"44.1599","4333.93","35.488","0.70976","1324.8"
"44.2032","4330.75","35.5252","0.710504","1326.1"
"44.2465","4267.55","35.5228","0.710456","1327.4"
"44.2557","-229.053","35.4283","0.708566","1327.66"