File: experimental_data/tensile_specimen_test_data/tensile_test_data/20250312/original_data/without_extensometer/SSS 4 03-12-25 17 51 23 下午/数采：横梁, … - (实时值).csv
"文件路径: C:\Users\Lenovo\Desktop\Wayne\20250312\原始数据\无引伸计\SSS 4 03-12-25 17 51 23 下午\数采：横梁, … - (实时值).csv   "
"试验: MTS EM 拉伸试验-W 3"
"试验运行: SSS 4"
"日期: 2025/3/12 17:24:20"
""
""
"横梁 ","力 ","应变 ","应力 ","时间 "
"mm","N","mm/mm","N/mm²","sec"
"0.00274789","50.3703","2.2511e-05","2.7676","0.1"
"0.0232407","154.84","0.000193284","8.507672","0.7"
"0.0432677","260.529","0.000360564","14.3148","1.3"
"0.0632947","363.541","0.000527068","19.9748","1.9"
"0.0833217","463.324","0.00069396","25.4573","2.5"
"0.103256","559.752","0.000860075","30.7556","3.1"
"0.123236","653.457","0.00102658","35.9042","3.7"
"0.143263","743.872","0.00119347","40.8721","4.3"
"0.16329","831.272","0.00136036","45.6743","4.9"
"0.183317","914.392","0.00152764","50.2413","5.5"
"0.203298","997.517","0.00169376","54.8086","6.1"
"0.223278","1079.79","0.00186065","59.329","6.7"
"0.243259","1158.7","0.00202677","63.6648","7.3"
"0.263239","1235.51","0.00219366","67.8852","7.9"
"0.283219","1309.95","0.00235977","71.9755","8.5"
"0.30334","1383.16","0.00252744","75.9977","9.1"
"0.323273","1452.35","0.00269395","79.7995","9.7"
"0.3433","1518.51","0.00286045","83.4345","10.3"
"0.363281","1580.23","0.00302695","86.82588","10.9"
"0.383215","1638.78","0.00319346","90.0429","11.5"
"0.403242","1693.71","0.00336035","93.0609","12.1"
"0.423222","1744.65","0.00352685","95.8597","12.7"
"0.443296","1792.35","0.00369374","98.4807","13.3"
"0.463323","1837.16","0.00386064","100.943","13.9"
"0.483257","1879.18","0.00402714","103.251","14.5"
"0.503284","1918.81","0.00419364","105.429","15.1"
"0.523264","1956.91","0.00436015","107.523","15.7"
"0.543245","1994.52","0.00452665","109.589","16.3"
"0.563272","2029.96","0.00469393","111.536","16.9"
"0.583299","2064.87","0.00486044","113.454","17.5"
"0.603326","2098.71","0.00502733","115.314","18.1"
"0.623306","2131.38","0.00519383","117.109","18.7"
"0.643287","2163.19","0.00536072","118.857","19.3"
"0.663221","2194","0.00552645","120.549","19.9"
"0.683248","2224.08","0.00569373","122.202","20.5"
"0.703228","2252.86","0.00586023","123.783","21.1"
"0.723302","2281.52","0.00602713","125.358","21.7"
"0.743282","2308.79","0.00619402","126.857","22.3"
"0.763309","2335.51","0.00636052","128.325","22.9"
"0.78329","2360.98","0.00652703","129.724","23.5"
"0.803223","2385.27","0.00669314","131.059","24.1"
"0.823204","2409","0.00686003","132.363","24.7"
"0.843278","2432.39","0.00702731","133.648","25.3"
"0.863305","2455.25","0.00719382","134.904","25.9"
"0.883332","2477.01","0.00736071","136.1","26.5"
"0.903265","2497.91","0.00752721","137.248","27.1"
"0.923246","2517.79","0.00769372","138.34","27.7"
"0.943273","2536.71","0.00786022","139.38","28.3"
"0.963253","2555.32","0.00802672","140.402","28.9"
"0.98328","2573.9","0.008194","141.423","29.5"
"1.00331","2591.06","0.00836051","142.366","30.1"
"1.02333","2607.89","0.0085274","143.291","30.7"
"1.04327","2623.73","0.0086939","144.161","31.3"
"1.0633","2639.66","0.00886041","145.036","31.9"
"1.08323","2654.2","0.00902652","145.835","32.5"
"1.10326","2668.67","0.0091938","146.63","33.1"
"1.12324","2682.87","0.00936031","147.41","33.7"
"1.14331","2696.46","0.0095272","148.157","34.3"
"1.16334","2709.8","0.00969409","148.89","34.9"
"1.18327","2722.05","0.00986021","149.5632","35.5"
"1.20325","2734.64","0.0100267","150.255","36.1"
"1.22323","2746.48","0.0101936","150.905","36.7"
"1.24321","2757.96","0.0103597","151.536","37.3"
"1.26329","2769.56","0.010527","152.173","37.9"
"1.28331","2780.25","0.0106939","152.7612","38.5"
"1.30329","2791.19","0.0108604","153.362","39.1"
"1.32332","2801.51","0.0110273","153.929","39.7"
"1.34325","2811.64","0.0111934","154.486","40.3"
"1.36324","2821.29","0.0113603","155.016","40.9"
"1.38326","2831.05","0.0115268","155.552","41.5"
"1.40329","2840.73","0.0116937","156.084","42.1"
"1.42332","2849.72","0.0118606","156.578","42.7"
"1.44334","2859.43","0.0120275","157.112","43.3"
"1.46328","2867.47","0.0121936","157.553","43.9"
"1.48326","2876.05","0.0123605","158.025","44.5"
"1.50324","2884.19","0.0125266","158.472","45.1"
"1.52326","2892.7","0.0126935","158.94","45.7"
"1.54329","2901.33","0.0128604","159.414","46.3"
"1.56332","2909.38","0.0130273","159.856","46.9"
"1.5833","2917.19","0.0131938","160.285","47.5"
"1.60328","2924.69","0.0133603","160.697","48.1"
"1.62321","2931.96","0.0135268","161.097","48.7"
"1.64324","2939.65","0.0136937","161.519","49.3"
"1.66327","2946.95","0.0138602","161.92","49.9"
"1.68329","2954.11","0.0140271","162.314","50.5"
"1.70332","2961.45","0.014194","162.717","51.1"
"1.7233","2968.08","0.0143605","163.081","51.7"
"1.74328","2975.07","0.014527","163.465","52.3"
"1.76326","2981.75","0.0146935","163.832","52.9"
"1.78324","2987.94","0.01486","164.173","53.5"
"1.80327","2994.72","0.0150269","164.545","54.1"
"1.8233","3001.5","0.0151938","164.918","54.7"
"1.84328","3007.8","0.0153607","165.2636","55.3"
"1.86335","3014.17","0.0155275","165.614","55.9"
"1.88324","3020.14","0.0156933","165.942","56.5"
"1.90327","3026.17","0.0158606","166.2728","57.1"
"1.9232","3032.06","0.0160267","166.5968","57.7"
"1.94327","3038.37","0.0161936","166.943","58.3"
"1.9633","3043.91","0.0163605","167.248","58.9"
"1.98333","3050.08","0.0165273","167.587","59.5"
"2.00331","3055.77","0.0166938","167.9","60.1"
"2.02329","3061.73","0.0168603","168.227","60.7"
"2.04322","3066.82","0.0170269","168.506","61.3"
"2.06325","3072.39","0.0171934","168.813","61.9"
"2.08328","3078.14","0.0173602","169.129","62.5"
"2.1033","3083.51","0.0175271","169.423","63.1"
"2.12333","3089.35","0.017694","169.745","63.7"
"2.14331","3094.53","0.0178605","170.029","64.3"
"2.16324","3099.49","0.0180267","170.302","64.9"
"2.18327","3104.57","0.0181935","170.581","65.5"
"2.20325","3109.37","0.01836","170.844","66.1"
"2.22328","3114.74","0.0185269","171.139","66.7"
"2.24335","3120.32","0.0186942","171.446","67.3"
"2.26329","3124.82","0.0188603","171.694","67.9"
"2.28331","3130.13","0.0190276","171.985","68.5"
"2.30325","3134.63","0.0191933","172.233","69.1"
"2.32327","3139.54","0.0193602","172.502","69.7"
"2.34326","3144.29","0.0195267","172.763","70.3"
"2.36328","3149.37","0.019694","173.042","70.9"
"2.38326","3153.88","0.0198605","173.29","71.5"
"2.40334","3158.58","0.0200274","173.548","72.1"
"2.42327","3163.32","0.0201939","173.809","72.7"
"2.44325","3167.71","0.02036","174.05","73.3"
"2.46323","3172.24","0.0205269","174.2988","73.9"
"2.48321","3176.64","0.0206934","174.541","74.5"
"2.50329","3181.57","0.0208603","174.8116","75.1"
"2.52331","3186.05","0.0210272","175.057","75.7"
"2.54329","3190.34","0.0211937","175.293","76.3"
"2.56332","3195.21","0.0213606","175.561","76.9"
"2.58325","3198.99","0.0215267","175.768","77.5"
"2.60323","3203.49","0.0216932","176.016","78.1"
"2.62326","3207.98","0.0218605","176.2628","78.7"
"2.64324","3212.12","0.022027","176.49","79.3"
"2.66336","3216.82","0.0221943","176.748","79.9"
"2.6833","3220.72","0.0223604","176.963","80.5"
"2.70328","3225.26","0.0225273","177.212","81.1"
"2.72326","3229.04","0.0226934","177.42","81.7"
"2.74328","3233.35","0.0228603","177.657","82.3"
"2.76326","3237.11","0.0230268","177.863","82.9"
"2.78334","3241.6","0.0231941","178.11","83.5"
"2.80332","3245.74","0.0233606","178.337","84.1"
"2.8233","3249.77","0.0235275","178.559","84.7"
"2.84328","3253.75","0.0236936","178.777","85.3"
"2.86326","3257.2","0.0238601","178.967","85.9"
"2.88324","3261.44","0.0240266","179.2","86.5"
"2.90327","3265.52","0.0241935","179.424","87.1"
"2.92329","3269.89","0.0243604","179.664","87.7"
"2.94332","3273.78","0.0245273","179.878","88.3"
"2.9633","3277.7","0.0246938","180.093","88.9"
"2.98328","3281.51","0.0248603","180.303","89.5"
"3.00326","3285.36","0.0250268","180.514","90.1"
"3.02324","3289.11","0.0251933","180.72","90.7"
"3.04332","3293.25","0.0253606","180.948","91.3"
"3.0633","3296.57","0.0255271","181.13","91.9"
"3.08332","3300.93","0.025694","181.37","92.5"
"3.1033","3304.5","0.0258605","181.566","93.1"
"3.12328","3308.39","0.0260274","181.78","93.7"
"3.14322","3311.98","0.0261935","181.977","94.3"
"3.16329","3315.63","0.0263604","182.177","94.9"
"3.18323","3319.51","0.0265265","182.391","95.5"
"3.20335","3323.07","0.0266942","182.586","96.1"
"3.22328","3326.84","0.0268603","182.793","96.7"
"3.24331","3330.84","0.0270272","183.013","97.3"
"3.26329","3334.38","0.0271937","183.208","97.9"
"3.28322","3337.77","0.0273598","183.394","98.5"
"3.30325","3341.22","0.0275267","183.584","99.1"
"3.32328","3344.89","0.0276936","183.785","99.7"
"3.3433","3348.97","0.0278605","184.009","100.3"
"3.36333","3352.54","0.0280274","184.205","100.9"
"3.38326","3356.02","0.0281939","184.397","101.5"
"3.40324","3359.15","0.0283604","184.569","102.1"
"3.42327","3362.63","0.0285269","184.76","102.7"
"3.44325","3365.91","0.0286934","184.94","103.3"
"3.46328","3369.61","0.0288603","185.144","103.9"
"3.48331","3373.3","0.0290275","185.346","104.5"
"3.50333","3376.93","0.029194","185.546","105.1"
"3.52327","3379.66","0.0293602","185.696","105.7"
"3.54329","3382.94","0.0295271","185.876","106.3"
"3.56318","3386.12","0.0296932","186.051","106.9"
"3.5833","3389.87","0.0298605","186.256","107.5"
"3.60323","3393.3","0.030027","186.445","108.1"
"3.62331","3396.54","0.0301938","186.623","108.7"
"3.64329","3399.98","0.0303607","186.812","109.3"
"3.66327","3403","0.0305272","186.978","109.9"
"3.68325","3406.18","0.0306937","187.153","110.5"
"3.70323","3409.48","0.0308599","187.334","111.1"
"3.72326","3412.86","0.0310268","187.52","111.7"
"3.74328","3416.03","0.0311936","187.694","112.3"
"3.76326","3419.52","0.0313605","187.886","112.9"
"3.78329","3422.48","0.0315274","188.048","113.5"
"3.80332","3425.94","0.0316939","188.238","114.1"
"3.8233","3428.8","0.0318604","188.395","114.7"
"3.84323","3431.74","0.0320266","188.557","115.3"
"3.86326","3434.66","0.0321934","188.718","115.9"
"3.88329","3437.65","0.0323607","188.882","116.5"
"3.90331","3441.17","0.0325272","189.075","117.1"
"3.92334","3444.59","0.0326941","189.263","117.7"
"3.94323","3447.55","0.0328602","189.426","118.3"
"3.9633","3450.75","0.0330271","189.601","118.9"
"3.98319","3453.14","0.0331932","189.7332","119.5"
"4.00326","3456.38","0.0333601","189.911","120.1"
"4.02329","3459.77","0.0335274","190.097","120.7"
"4.04332","3462.84","0.0336939","190.266","121.3"
"4.0633","3465.77","0.0338608","190.427","121.9"
"4.08323","3468.62","0.0340269","190.584","122.5"
"4.10321","3471.43","0.0341934","190.738","123.1"
"4.12324","3474.29","0.0343603","190.895","123.7"
"4.14327","3477.75","0.0345268","191.0852","124.3"
"4.16329","3480.71","0.0346941","191.248","124.9"
"4.18332","3484","0.0348606","191.428","125.5"
"4.2033","3486.56","0.0350271","191.569","126.1"
"4.22323","3489.18","0.0351936","191.713","126.7"
"4.24326","3491.87","0.0353601","191.861","127.3"
"4.26324","3494.73","0.035527","192.018","127.9"
"4.28327","3497.67","0.0356935","192.18","128.5"
"4.3033","3500.92","0.0358608","192.358","129.1"
"4.32328","3503.47","0.0360269","192.498","129.7"
"4.34335","3506.4","0.0361942","192.66","130.3"
"4.36324","3508.47","0.0363603","192.773","130.9"
"4.38326","3511.44","0.0365268","192.937","131.5"
"4.40324","3514.17","0.0366933","193.086","132.1"
"4.42327","3515.94","0.0368602","193.184","132.7"
"4.4433","3519.4","0.0370271","193.374","133.3"
"4.46333","3521.93","0.037194","193.512","133.9"
"4.48331","3524.84","0.0373605","193.673","134.5"
"4.50329","3527.33","0.037527","193.809","135.1"
"4.52322","3529.91","0.0376931","193.951","135.7"
"4.54325","3532.73","0.03786","194.106","136.3"
"4.56327","3535.43","0.0380269","194.255","136.9"
"4.5833","3538.2","0.0381938","194.406","137.5"
"4.60333","3541.03","0.0383607","194.562","138.1"
"4.62331","3543.7","0.0385272","194.709","138.7"
"4.64324","3546.18","0.0386937","194.845","139.3"
"4.66327","3548.66","0.0388602","194.981","139.9"
"4.68325","3551.3","0.0390267","195.1264","140.5"
"4.70328","3553.7","0.0391936","195.258","141.1"
"4.72335","3557.03","0.0393609","195.441","141.7"
"4.74328","3559.49","0.0395274","195.576","142.3"
"4.76331","3562.35","0.0396939","195.734","142.9"
"4.78325","3564.29","0.03986","195.84","143.5"
"4.80327","3566.74","0.0400269","195.975","144.1"
"4.82325","3569.24","0.0401934","196.112","144.7"
"4.84328","3571.68","0.0403607","196.246","145.3"
"4.86326","3574.56","0.0405272","196.404","145.9"
"4.88333","3577.07","0.0406945","196.542","146.5"
"4.90327","3579.34","0.0408602","196.667","147.1"
"4.92325","3581.64","0.0410271","196.793","147.7"
"4.94323","3584.25","0.0411936","196.937","148.3"
"4.96326","3586.49","0.0413601","197.06","148.9"
"4.98328","3589.45","0.041527","197.223","149.5"
"5.00331","3591.51","0.0416939","197.336","150.1"
"5.02329","3594.03","0.0418604","197.474","150.7"
"5.04332","3596.14","0.0420273","197.59","151.3"
"5.06325","3598.59","0.0421934","197.725","151.9"
"5.08323","3600.71","0.0423603","197.841","152.5"
"5.10326","3603.29","0.0425268","197.983","153.1"
"5.12329","3605.73","0.0426937","198.117","153.7"
"5.14336","3607.96","0.0428609","198.239","154.3"
"5.16329","3610.45","0.0430271","198.376","154.9"
"5.18332","3612.46","0.0431939","198.487","155.5"
"5.20325","3614.79","0.0433601","198.615","156.1"
"5.22328","3616.81","0.043527","198.726","156.7"
"5.24322","3618.95","0.0436931","198.843","157.3"
"5.26334","3621.86","0.0438607","199.003","157.9"
"5.28332","3623.92","0.0440272","199.117","158.5"
"5.3033","3626.6","0.0441941","199.264","159.1"
"5.32328","3628.24","0.0443603","199.354","159.7"
"5.34321","3630.47","0.0445264","199.477","160.3"
"5.36324","3632.58","0.0446936","199.592","160.9"
"5.38326","3634.62","0.0448602","199.704","161.5"
"5.40329","3637.08","0.045027","199.84","162.1"
"5.42337","3639.46","0.0451943","199.97","162.7"
"5.4433","3641.54","0.0453604","200.084","163.3"
"5.46328","3643.3","0.0455269","200.182","163.9"
"5.48326","3645.42","0.0456934","200.298","164.5"
"5.50324","3647.39","0.0458603","200.406","165.1"
"5.52331","3649.58","0.0460272","200.526","165.7"
"5.54329","3652.05","0.0461937","200.662","166.3"
"5.56332","3654.54","0.046361","200.799","166.9"
"5.5833","3656.35","0.0465271","200.899","167.5"
"5.60328","3658.38","0.046694","201.01","168.1"
"5.62322","3660.13","0.0468597","201.106","168.7"
"5.64329","3662.52","0.047027","201.237","169.3"
"5.66322","3664.47","0.0471935","201.3444","169.9"
"5.6833","3666.57","0.0473608","201.46","170.5"
"5.70328","3668.53","0.0475273","201.568","171.1"
"5.72331","3670.39","0.0476938","201.67","171.7"
"5.74329","3672.63","0.0478603","201.793","172.3"
"5.76322","3674.26","0.0480268","201.882","172.9"
"5.78325","3676.15","0.0481933","201.986","173.5"
"5.80327","3678.34","0.0483602","202.107","174.1"
"5.8233","3680.4","0.0485271","202.22","174.7"
"5.84333","3682.4","0.048694","202.33","175.3"
"5.86326","3684.12","0.0488605","202.424","175.9"
"5.88329","3686.29","0.049027","202.543","176.5"
"5.90327","3687.9","0.0491935","202.632","177.1"
"5.92325","3689.56","0.04936","202.723","177.7"
"5.94332","3691.76","0.0495273","202.844","178.3"
"5.9633","3693.78","0.0496938","202.955","178.9"
"5.98333","3696.05","0.0498607","203.08","179.5"
"6.00326","3697.26","0.0500272","203.146","180.1"
"6.02329","3699.22","0.0501937","203.254","180.7"
"6.04323","3700.52","0.0503598","203.325","181.3"
"6.06325","3702.91","0.0505271","203.456","181.9"
"6.08328","3704.42","0.0506936","203.54","182.5"
"6.10331","3706.75","0.0508605","203.667","183.1"
"6.12329","3708.51","0.0510274","203.764","183.7"
"6.14327","3709.83","0.0511939","203.837","184.3"
"6.16325","3711.57","0.05136","203.933","184.9"
"6.18327","3713.37","0.0515269","204.031","185.5"
"6.20326","3715.25","0.0516934","204.135","186.1"
"6.22328","3717.15","0.0518607","204.2392","186.7"
"6.24331","3719.02","0.0520272","204.342","187.3"
"6.26329","3720.5","0.0521937","204.423","187.9"
"6.28332","3722.56","0.0523606","204.536","188.5"
"6.30325","3723.98","0.0525267","204.614","189.1"
"6.32328","3725.79","0.0526936","204.714","189.7"
"6.34326","3727.26","0.0528601","204.794","190.3"
"6.36328","3729.5","0.053027","204.917","190.9"
"6.38331","3731.05","0.0531939","205.003","191.5"
"6.40334","3732.69","0.0533608","205.093","192.1"
"6.42327","3734.25","0.0535269","205.179","192.7"
"6.4433","3736.05","0.0536938","205.278","193.3"
"6.46319","3737.8","0.0538599","205.374","193.9"
"6.48326","3739.24","0.0540272","205.453","194.5"
"6.50329","3741.17","0.0541937","205.559","195.1"
"6.52331","3742.65","0.054361","205.64","195.7"
"6.5433","3744.44","0.0545271","205.738","196.3"
"6.56328","3745.97","0.0546936","205.823","196.9"
"6.58321","3747.44","0.0548601","205.903","197.5"
"6.60324","3748.87","0.0550266","205.982","198.1"
"6.62326","3750.3","0.0551935","206.06","198.7"
"6.64329","3752.3","0.0553604","206.17","199.3"
"6.66336","3753.92","0.0555276","206.259","199.9"
"6.6833","3755.28","0.0556938","206.334","200.5"
"6.70328","3756.9","0.0558603","206.423","201.1"
"6.72326","3758.19","0.0560268","206.494","201.7"
"6.74324","3759.53","0.0561933","206.567","202.3"
"6.76331","3761.27","0.0563606","206.663","202.9"
"6.78329","3763.24","0.0565274","206.771","203.5"
"6.80327","3764.59","0.0566939","206.846","204.1"
"6.82335","3766.12","0.0568608","206.93","204.7"
"6.84323","3767.34","0.0570266","206.997","205.3"
"6.86331","3768.98","0.0571938","207.087","205.9"
"6.88324","3770.2","0.05736","207.154","206.5"
"6.90327","3772.11","0.0575272","207.259","207.1"
"6.9233","3773.62","0.0576937","207.342","207.7"
"6.94332","3774.95","0.0578606","207.415","208.3"
"6.96326","3776.08","0.0580271","207.477","208.9"
"6.98328","3777.53","0.0581936","207.557","209.5"
"7.00322","3778.88","0.0583602","207.631","210.1"
"7.02325","3779.82","0.0585267","207.683","210.7"
"7.04327","3781.87","0.0586935","207.795","211.3"
"7.0633","3783.24","0.0588604","207.87","211.9"
"7.08333","3784.59","0.0590273","207.944","212.5"
"7.10331","3786.09","0.0591938","208.027","213.1"
"7.12324","3787.34","0.0593603","208.096","213.7"
"7.14327","3788.69","0.0595268","208.17","214.3"
"7.16325","3789.99","0.0596933","208.241","214.9"
"7.18328","3791.4","0.0598602","208.319","215.5"
"7.20335","3792.82","0.0600275","208.397","216.1"
"7.22328","3794.22","0.0601936","208.474","216.7"
"7.24336","3795.62","0.0603609","208.55","217.3"
"7.26324","3796.73","0.0605266","208.612","217.9"
"7.28327","3797.99","0.0606935","208.681","218.5"
"7.30325","3798.84","0.06086","208.727","219.1"
"7.32328","3800.87","0.0610273","208.8392","219.7"
"7.34331","3802.04","0.0611938","208.903","220.3"
"7.36333","3803.73","0.0613607","208.996","220.9"
"7.38327","3804.74","0.0615272","209.052","221.5"
"7.40325","3805.7","0.0616933","209.104","222.1"
"7.42323","3806.87","0.0618602","209.169","222.7"
"7.44325","3807.9","0.0620267","209.225","223.3"
"7.46328","3809.69","0.0621936","209.324","223.9"
"7.48331","3811.12","0.0623605","209.402","224.5"
"7.50329","3812.43","0.062527","209.474","225.1"
"7.52332","3813.4","0.0626939","209.528","225.7"
"7.54325","3814.62","0.06286","209.594","226.3"
"7.56323","3815.67","0.0630269","209.652","226.9"
"7.5833","3817.4","0.0631938","209.747","227.5"
"7.60324","3818.31","0.0633603","209.797","228.1"
"7.62336","3819.87","0.0635276","209.883","228.7"
"7.64329","3820.87","0.0636937","209.938","229.3"
"7.66332","3822.29","0.0638606","210.016","229.9"
"7.68325","3823.33","0.0640267","210.073","230.5"
"7.70328","3824.48","0.0641936","210.136","231.1"
"7.72321","3825.66","0.0643601","210.201","231.7"
"7.74333","3826.88","0.0645274","210.268","232.3"
"7.76331","3828.33","0.0646939","210.348","232.9"
"7.78334","3829.75","0.0648608","210.426","233.5"
"7.80327","3830.94","0.0650269","210.491","234.1"
"7.82325","3831.81","0.0651934","210.539","234.7"
"7.84324","3832.94","0.0653599","210.601","235.3"
"7.86326","3834.02","0.0655268","210.661","235.9"
"7.88329","3835.1","0.0656937","210.72","236.5"
"7.90332","3837.08","0.065861","210.829","237.1"
"7.9233","3837.58","0.0660271","210.856","237.7"
"7.94328","3838.89","0.0661936","210.928","238.3"
"7.96326","3839.76","0.0663601","210.976","238.9"
"7.98324","3840.75","0.0665266","211.03","239.5"
"8.00331","3842.21","0.0666939","211.111","240.1"
"8.02329","3843.46","0.0668604","211.179","240.7"
"8.04332","3844.72","0.0670273","211.248","241.3"
"8.0633","3845.72","0.0671938","211.303","241.9"
"8.08328","3847.14","0.0673607","211.381","242.5"
"8.10321","3847.58","0.0675268","211.405","243.1"
"8.12329","3849.01","0.0676937","211.484","243.7"
"8.14322","3849.97","0.0678602","211.537","244.3"
"8.16334","3851.53","0.0680275","211.623","244.9"
"8.18328","3852.56","0.0681936","211.679","245.5"
"8.2033","3853.5","0.0683605","211.731","246.1"
"8.22328","3854.22","0.068527","211.77","246.7"
"8.24326","3855.47","0.0686935","211.839","247.3"
"8.26324","3856.26","0.06886","211.882","247.9"
"8.28327","3857.51","0.0690269","211.951","248.5"
"8.3033","3858.98","0.0691938","212.032","249.1"
"8.32332","3859.75","0.0693607","212.074","249.7"
"8.34326","3861.06","0.0695272","212.146","250.3"
"8.36329","3862.21","0.0696937","212.209","250.9"
"8.38327","3863.16","0.0698602","212.2616","251.5"
"8.40325","3863.85","0.0700267","212.3","252.1"
"8.42327","3865.09","0.0701936","212.368","252.7"
"8.4433","3866.58","0.0703608","212.449","253.3"
"8.46333","3867.61","0.0705273","212.506","253.9"
"8.48326","3868.93","0.0706939","212.579","254.5"
"8.50329","3869.59","0.0708604","212.615","255.1"
"8.52322","3870.53","0.0710265","212.667","255.7"
"8.5433","3871.51","0.0711937","212.72","256.3"
"8.56328","3872.58","0.0713603","212.779","256.9"
"8.5833","3874.22","0.0715275","212.869","257.5"
"8.60333","3875.07","0.071694","212.916","258.1"
"8.62326","3875.92","0.0718601","212.962","258.7"
"8.64325","3876.64","0.072027","213.002","259.3"
"8.66323","3877.66","0.0721932","213.058","259.9"
"8.68325","3878.79","0.0723601","213.12","260.5"
"8.70328","3880","0.0725273","213.187","261.1"
"8.72331","3881.3","0.0726938","213.258","261.7"
"8.74329","3882.08","0.0728607","213.301","262.3"
"8.76327","3883.13","0.0730272","213.359","262.9"
"8.78329","3883.84","0.0731937","213.398","263.5"
"8.80323","3884.81","0.0733599","213.451","264.1"
"8.82326","3885.96","0.0735271","213.514","264.7"
"8.84328","3887.04","0.073694","213.574","265.3"
"8.86331","3888.15","0.0738605","213.634","265.9"
"8.88334","3889.01","0.0740274","213.682","266.5"
"8.90322","3889.57","0.0741935","213.713","267.1"
"8.9233","3891.06","0.0743608","213.794","267.7"
"8.94323","3891.46","0.0745265","213.816","268.3"
"8.96326","3892.88","0.0746934","213.895","268.9"
"8.98329","3893.76","0.0748603","213.943","269.5"
"9.00331","3894.6","0.0750272","213.989","270.1"
"9.02334","3895.83","0.0751941","214.056","270.7"
"9.04327","3896.37","0.0753602","214.086","271.3"
"9.06325","3897.43","0.0755267","214.145","271.9"
"9.08323","3898.06","0.0756932","214.179","272.5"
"9.10326","3899.09","0.0758601","214.236","273.1"
"9.12329","3899.98","0.076027","214.285","273.7"
"9.14332","3901.33","0.0761939","214.359","274.3"
"9.1633","3902.32","0.0763608","214.413","274.9"
"9.18328","3903.07","0.0765269","214.455","275.5"
"9.20326","3903.94","0.0766934","214.502","276.1"
"9.22324","3904.45","0.0768599","214.53","276.7"
"9.24326","3905.43","0.0770268","214.584","277.3"
"9.26334","3906.67","0.0771941","214.652","277.9"
"9.28327","3907.27","0.0773606","214.685","278.5"
"9.30335","3908.46","0.0775275","214.75","279.1"
"9.32323","3908.76","0.0776932","214.767","279.7"
"9.34326","3909.82","0.0778601","214.825","280.3"
"9.36324","3910.53","0.0780266","214.864","280.9"
"9.38327","3911.51","0.0781939","214.918","281.5"
"9.40329","3912.26","0.0783604","214.959","282.1"
"9.42327","3913.14","0.0785273","215.008","282.7"
"9.44326","3913.71","0.0786938","215.039","283.3"
"9.46328","3914.43","0.0788607","215.0788","283.9"
"9.48322","3915.41","0.0790268","215.133","284.5"
"9.50324","3916.34","0.0791937","215.184","285.1"
"9.52327","3917.37","0.0793602","215.24","285.7"
"9.5433","3918.21","0.0795271","215.286","286.3"
"9.56332","3919.1","0.079694","215.335","286.9"
"9.5833","3920.12","0.0798605","215.391","287.5"
"9.60329","3920.62","0.080027","215.418","288.1"
"9.62327","3921.27","0.0801935","215.454","288.7"
"9.64325","3922.22","0.08036","215.506","289.3"
"9.66327","3923","0.0805269","215.549","289.9"
"9.68335","3924.22","0.0806942","215.616","290.5"
"9.70328","3924.82","0.0808603","215.649","291.1"
"9.72331","3926.05","0.0810276","215.717","291.7"
"9.74324","3926.64","0.0811933","215.7496","292.3"
"9.76327","3927.1","0.0813602","215.775","292.9"
"9.78325","3927.98","0.0815267","215.823","293.5"
"9.80328","3928.83","0.081694","215.87","294.1"
"9.8233","3929.91","0.0818605","215.929","294.7"
"9.84333","3931.12","0.0820277","215.996","295.3"
"9.86326","3931.49","0.0821935","216.016","295.9"
"9.88324","3932.17","0.08236","216.053","296.5"
"9.90323","3932.78","0.0825269","216.087","297.1"
"9.92325","3933.57","0.0826934","216.13","297.7"
"9.94328","3934.86","0.0828607","216.201","298.3"
"9.96331","3935.95","0.0830272","216.261","298.9"
"9.98329","3936.58","0.0831937","216.296","299.5"
"10.0033","3937.29","0.0833606","216.335","300.1"
"10.0232","3937.32","0.0835267","216.336","300.7"
"10.0433","3937.52","0.0836936","216.347","301.3"
"10.0633","3938.85","0.0838605","216.42","301.9"
"10.0833","3939.63","0.084027","216.4632","302.5"
"10.1033","3940.72","0.0841942","216.523","303.1"
"10.1233","3941.37","0.0843604","216.559","303.7"
"10.1433","3942.36","0.0845272","216.613","304.3"
"10.1633","3942.68","0.0846934","216.631","304.9"
"10.1833","3943.68","0.0848603","216.686","305.5"
"10.2032","3944.09","0.0850264","216.708","306.1"
"10.2233","3945.16","0.085194","216.767","306.7"
"10.2433","3945.51","0.0853605","216.786","307.3"
"10.2633","3946.53","0.0855274","216.842","307.9"
"10.2833","3947.22","0.0856936","216.88","308.5"
"10.3033","3947.94","0.0858601","216.92","309.1"
"10.3233","3948.69","0.0860269","216.961","309.7"
"10.3433","3949.36","0.0861934","216.998","310.3"
"10.3633","3950.02","0.0863603","217.034","310.9"
"10.3833","3951.11","0.0865276","217.094","311.5"
"10.4033","3951.65","0.0866937","217.124","312.1"
"10.4233","3952.63","0.0868606","217.177","312.7"
"10.4433","3953.18","0.0870267","217.208","313.3"
"10.4632","3953.72","0.0871936","217.237","313.9"
"10.4833","3953.71","0.0873605","217.237","314.5"
"10.5033","3954.63","0.087527","217.288","315.1"
"10.5234","3954.76","0.0876943","217.295","315.7"
"10.5433","3955.37","0.0878604","217.328","316.3"
"10.5633","3956.2","0.0880273","217.373","316.9"
"10.5832","3956.46","0.088193","217.388","317.5"
"10.6033","3957.57","0.0883603","217.449","318.1"
"10.6233","3957.93","0.0885268","217.469","318.7"
"10.6433","3959.25","0.0886941","217.541","319.3"
"10.6633","3960.02","0.0888606","217.583","319.9"
"10.6833","3960.49","0.0890271","217.61","320.5"
"10.7033","3961.07","0.0891936","217.641","321.1"
"10.7232","3961.38","0.0893601","217.658","321.7"
"10.7432","3962.6","0.0895266","217.725","322.3"
"10.7633","3963.31","0.0896939","217.764","322.9"
"10.7832","3963.93","0.0898604","217.798","323.5"
"10.8033","3964.74","0.0900273","217.843","324.1"
"10.8233","3965.42","0.0901938","217.88","324.7"
"10.8433","3965.97","0.0903603","217.91","325.3"
"10.8633","3966.75","0.0905268","217.953","325.9"
"10.8832","3967.08","0.0906933","217.972","326.5"
"10.9033","3967.63","0.0908606","218.002","327.1"
"10.9233","3968.31","0.0910271","218.039","327.7"
"10.9433","3969.24","0.091194","218.09","328.3"
"10.9633","3969.65","0.0913605","218.113","328.9"
"10.9833","3970.65","0.091527","218.168","329.5"
"11.0032","3970.64","0.0916931","218.167","330.1"
"11.0232","3971.3","0.0918604","218.203","330.7"
"11.0433","3972.02","0.0920269","218.243","331.3"
"11.0633","3972.71","0.0921938","218.281","331.9"
"11.0833","3973.73","0.0923607","218.3368","332.5"
"11.1033","3973.88","0.0925272","218.345","333.1"
"11.1232","3974.4","0.0926933","218.374","333.7"
"11.1432","3975.07","0.0928602","218.41","334.3"
"11.1632","3975.67","0.0930267","218.444","334.9"
"11.1833","3976.61","0.093194","218.495","335.5"
"11.2033","3977.29","0.0933605","218.532","336.1"
"11.2233","3977.88","0.0935274","218.565","336.7"
"11.2433","3978.49","0.0936939","218.598","337.3"
"11.2632","3979.11","0.09386","218.632","337.9"
"11.2833","3979.51","0.0940269","218.654","338.5"
"11.3033","3980.24","0.0941938","218.694","339.1"
"11.3233","3981.17","0.0943607","218.745","339.7"
"11.3433","3981.51","0.0945272","218.764","340.3"
"11.3633","3982.46","0.0946941","218.816","340.9"
"11.3833","3982.6","0.0948602","218.824","341.5"
"11.4033","3983.43","0.0950271","218.87","342.1"
"11.4232","3983.79","0.0951932","218.89","342.7"
"11.4433","3984.71","0.0953605","218.94","343.3"
"11.4633","3985.42","0.095527","218.979","343.9"
"11.4833","3986.12","0.0956939","219.018","344.5"
"11.5033","3986.73","0.0958604","219.0512","345.1"
"11.5233","3987.38","0.0960273","219.087","345.7"
"11.5433","3987.83","0.0961934","219.111","346.3"
"11.5632","3988.2","0.0963603","219.132","346.9"
"11.5833","3989.21","0.0965268","219.187","347.5"
"11.6033","3989.8","0.0966937","219.22","348.1"
"11.6233","3990.63","0.0968609","219.265","348.7"
"11.6433","3990.99","0.0970271","219.285","349.3"
"11.6633","3991.72","0.097194","219.325","349.9"
"11.6833","3992.45","0.0973601","219.365","350.5"
"11.7032","3992.8","0.0975266","219.385","351.1"
"11.7233","3993.21","0.0976939","219.4072","351.7"
"11.7433","3994.18","0.0978607","219.46","352.3"
"11.7633","3995.14","0.0980273","219.513","352.9"
"11.7833","3995.63","0.0981941","219.54","353.5"
"11.8032","3995.88","0.0983599","219.554","354.1"
"11.8233","3996.46","0.0985271","219.586","354.7"
"11.8432","3997.05","0.0986933","219.618","355.3"
"11.8633","3997.95","0.0988605","219.667","355.9"
"11.8833","3998.62","0.099027","219.705","356.5"
"11.9033","3999.43","0.0991939","219.749","357.1"
"11.9233","3999.43","0.0993604","219.749","357.7"
"11.9433","3999.93","0.0995269","219.776","358.3"
"11.9633","4000.42","0.0996934","219.803","358.9"
"11.9832","4001","0.09986","219.835","359.5"
"12.0033","4002.11","0.100027","219.896","360.1"
"12.0233","4002.35","0.100194","219.909","360.7"
"12.0433","4003.22","0.100361","219.957","361.3"
"12.0633","4003.55","0.100527","219.975","361.9"
"12.0832","4004.26","0.100693","220.015","362.5"
"12.1033","4004.91","0.100861","220.05","363.1"
"12.1232","4005.19","0.101027","220.065","363.7"
"12.1433","4006.02","0.101194","220.111","364.3"
"12.1633","4006.81","0.101361","220.154","364.9"
"12.1833","4006.85","0.101527","220.157","365.5"
"12.2034","4007.87","0.101694","220.213","366.1"
"12.2232","4008.11","0.10186","220.226","366.7"
"12.2433","4008.63","0.102027","220.255","367.3"
"12.2632","4009.18","0.102193","220.284","367.9"
"12.2833","4009.77","0.102361","220.317","368.5"
"12.3033","4010.26","0.102527","220.344","369.1"
"12.3233","4010.88","0.102694","220.378","369.7"
"12.3433","4011.61","0.102861","220.418","370.3"
"12.3632","4011.91","0.103027","220.434","370.9"
"12.3832","4012.57","0.103194","220.471","371.5"
"12.4032","4012.62","0.10336","220.474","372.1"
"12.4233","4013.45","0.103527","220.519","372.7"
"12.4433","4014.37","0.103694","220.57","373.3"
"12.4633","4014.81","0.10386","220.594","373.9"
"12.4833","4015.52","0.104027","220.633","374.5"
"12.5032","4015.45","0.104193","220.629","375.1"
"12.5232","4016.01","0.10436","220.66","375.7"
"12.5433","4016.62","0.104527","220.693","376.3"
"12.5633","4017.2","0.104694","220.725","376.9"
"12.5834","4017.94","0.104861","220.766","377.5"
"12.6033","4018.2","0.105027","220.78","378.1"
"12.6233","4018.77","0.105194","220.812","378.7"
"12.6432","4018.8","0.10536","220.813","379.3"
"12.6633","4019.69","0.105527","220.862","379.9"
"12.6833","4019.54","0.105693","220.854","380.5"
"12.7033","4020.19","0.105861","220.889","381.1"
"12.7233","4020.82","0.106027","220.924","381.7"
"12.7433","4021.19","0.106194","220.945","382.3"
"12.7633","4021.8","0.10636","220.978","382.9"
"12.7833","4021.99","0.106527","220.989","383.5"
"12.8032","4022.76","0.106694","221.031","384.1"
"12.8233","4023.34","0.10686","221.063","384.7"
"12.8433","4023.73","0.107027","221.084","385.3"
"12.8633","4024.23","0.107194","221.111","385.9"
"12.8833","4024.78","0.107361","221.142","386.5"
"12.9033","4025.55","0.107527","221.184","387.1"
"12.9233","4025.88","0.107693","221.202","387.7"
"12.9432","4026.09","0.10786","221.214","388.3"
"12.9633","4026.99","0.108027","221.263","388.9"
"12.9833","4027.41","0.108194","221.286","389.5"
"13.0033","4028.03","0.108361","221.32","390.1"
"13.0233","4028.6","0.108527","221.352","390.7"
"13.0433","4028.84","0.108694","221.365","391.3"
"13.0632","4029.22","0.10886","221.386","391.9"
"13.0833","4029.4","0.109027","221.396","392.5"
"13.1033","4029.97","0.109193","221.427","393.1"
"13.1233","4030.84","0.109361","221.475","393.7"
"13.1433","4031.49","0.109527","221.51","394.3"
"13.1633","4031.99","0.109694","221.538","394.9"
"13.1833","4031.96","0.10986","221.536","395.5"
"13.2032","4032.52","0.110027","221.567","396.1"
"13.2232","4032.92","0.110193","221.589","396.7"
"13.2433","4033.86","0.11036","221.64","397.3"
"13.2633","4034.22","0.110527","221.66","397.9"
"13.2833","4034.96","0.110694","221.701","398.5"
"13.3033","4035.21","0.11086","221.715","399.1"
"13.3232","4035.43","0.111027","221.7268","399.7"
"13.3433","4035.99","0.111193","221.758","400.3"
"13.3633","4036.35","0.11136","221.778","400.9"
"13.3833","4037.11","0.111527","221.819","401.5"
"13.4033","4037.72","0.111694","221.853","402.1"
"13.4233","4038.17","0.111861","221.877","402.7"
"13.4433","4038.5","0.112027","221.895","403.3"
"13.4633","4038.93","0.112194","221.919","403.9"
"13.4832","4039.18","0.11236","221.933","404.5"
"13.5033","4039.9","0.112527","221.973","405.1"
"13.5232","4039.98","0.112694","221.977","405.7"
"13.5433","4040.15","0.11286","221.986","406.3"
"13.5633","4041.07","0.113027","222.037","406.9"
"13.5833","4041.3","0.113194","222.049","407.5"
"13.6033","4041.89","0.11336","222.082","408.1"
"13.6232","4042.08","0.113526","222.0924","408.7"
"13.6432","4042.62","0.113693","222.122","409.3"
"13.6633","4042.94","0.11386","222.14","409.9"
"13.6833","4043.87","0.114027","222.191","410.5"
"13.7033","4044.21","0.114194","222.21","411.1"
"13.7233","4044.94","0.114361","222.25","411.7"
"13.7432","4044.98","0.114527","222.252","412.3"
"13.7632","4045.34","0.114694","222.271","412.9"
"13.7833","4045.73","0.11486","222.293","413.5"
"13.8033","4046.55","0.115027","222.338","414.1"
"13.8233","4047.13","0.115194","222.37","414.7"
"13.8433","4047.6","0.115361","222.395","415.3"
"13.8632","4047.63","0.115527","222.397","415.9"
"13.8833","4048.15","0.115694","222.426","416.5"
"13.9032","4048.2","0.11586","222.428","417.1"
"13.9233","4049.17","0.116027","222.482","417.7"
"13.9433","4049.69","0.116194","222.51","418.3"
"13.9633","4050.32","0.116361","222.545","418.9"
"13.9833","4050.4","0.116527","222.55","419.5"
"14.0033","4050.94","0.116694","222.579","420.1"
"14.0232","4051.31","0.11686","222.599","420.7"
"14.0433","4051.41","0.117027","222.605","421.3"
"14.0633","4052.19","0.117193","222.648","421.9"
"14.0833","4052.63","0.11736","222.672","422.5"
"14.1033","4053.52","0.117527","222.721","423.1"
"14.1233","4053.6","0.117694","222.725","423.7"
"14.1433","4054.07","0.11786","222.751","424.3"
"14.1633","4054.52","0.118027","222.776","424.9"
"14.1832","4054.74","0.118194","222.788","425.5"
"14.2033","4055.13","0.118361","222.81","426.1"
"14.2233","4055.42","0.118527","222.825","426.7"
"14.2433","4055.73","0.118694","222.842","427.3"
"14.2633","4056.8","0.118861","222.901","427.9"
"14.2832","4056.78","0.119027","222.9","428.5"
"14.3033","4057.11","0.119193","222.918","429.1"
"14.3232","4057.6","0.11936","222.945","429.7"
"14.3433","4058.1","0.119527","222.973","430.3"
"14.3633","4058.83","0.119694","223.012","430.9"
"14.3833","4059.26","0.119861","223.036","431.5"
"14.4033","4059.58","0.120027","223.054","432.1"
"14.4233","4059.77","0.120194","223.065","432.7"
"14.4432","4059.91","0.12036","223.072","433.3"
"14.4632","4060.52","0.120527","223.106","433.9"
"14.4833","4061.16","0.120694","223.141","434.5"
"14.5033","4061.79","0.120861","223.175","435.1"
"14.5233","4062.13","0.121027","223.194","435.7"
"14.5433","4062.5","0.121194","223.214","436.3"
"14.5633","4062.72","0.12136","223.227","436.9"
"14.5833","4063.35","0.121527","223.261","437.5"
"14.6033","4063.94","0.121694","223.294","438.1"
"14.6233","4063.97","0.12186","223.2948","438.7"
"14.6433","4065.06","0.122027","223.355","439.3"
"14.6633","4065.06","0.122194","223.355","439.9"
"14.6833","4065.6","0.122361","223.385","440.5"
"14.7032","4065.72","0.122527","223.391","441.1"
"14.7233","4066.17","0.122693","223.416","441.7"
"14.7432","4066.34","0.12286","223.425","442.3"
"14.7633","4067.03","0.123027","223.463","442.9"
"14.7833","4067.19","0.123194","223.472","443.5"
"14.8034","4067.84","0.123361","223.508","444.1"
"14.8233","4067.41","0.123527","223.484","444.7"
"14.8432","4067.48","0.123694","223.488","445.3"
"14.8632","4067.85","0.12386","223.509","445.9"
"14.8832","4067.97","0.124027","223.515","446.5"
"14.9033","4068.67","0.124194","223.553","447.1"
"14.9233","4069.36","0.12436","223.591","447.7"
"14.9433","4070.06","0.124527","223.63","448.3"
"14.9633","4070.38","0.124694","223.647","448.9"
"14.9832","4070.57","0.12486","223.658","449.5"
"15.0032","4070.63","0.125027","223.661","450.1"
"15.0233","4071.11","0.125194","223.688","450.7"
"15.0433","4071.54","0.125361","223.711","451.3"
"15.0634","4071.89","0.125528","223.73","451.9"
"15.0833","4072.36","0.125694","223.756","452.5"
"15.1033","4072.64","0.125861","223.771","453.1"
"15.1232","4072.5","0.126027","223.764","453.7"
"15.1433","4072.14","0.126194","223.744","454.3"
"15.1633","4072.6","0.12636","223.769","454.9"
"15.1833","4073.4","0.126528","223.813","455.5"
"15.2033","4073.62","0.126694","223.825","456.1"
"15.2233","4074.3","0.126861","223.863","456.7"
"15.2433","4074.48","0.127027","223.873","457.3"
"15.2632","4074.6","0.127193","223.879","457.9"
"15.2833","4075.25","0.12736","223.915","458.5"
"15.3033","4075.6","0.127527","223.934","459.1"
"15.3233","4076.12","0.127694","223.963","459.7"
"15.3434","4076.45","0.127861","223.981","460.3"
"15.3633","4076.97","0.128027","224.01","460.9"
"15.3833","4077.2","0.128194","224.022","461.5"
"15.4033","4077.72","0.12836","224.051","462.1"
"15.4232","4077.78","0.128527","224.054","462.7"
"15.4433","4078.33","0.128694","224.084","463.3"
"15.4633","4078.42","0.12886","224.089","463.9"
"15.4833","4078.75","0.129028","224.107","464.5"
"15.5033","4079.25","0.129194","224.1344","465.1"
"15.5233","4079.57","0.129361","224.152","465.7"
"15.5432","4079.66","0.129526","224.157","466.3"
"15.5633","4080.1","0.129694","224.182","466.9"
"15.5833","4080.22","0.12986","224.188","467.5"
"15.6033","4080.82","0.130027","224.221","468.1"
"15.6233","4081.52","0.130194","224.259","468.7"
"15.6433","4081.68","0.13036","224.268","469.3"
"15.6633","4082.13","0.130527","224.293","469.9"
"15.6832","4081.57","0.130693","224.262","470.5"
"15.7032","4082.12","0.13086","224.292","471.1"
"15.7233","4082.61","0.131027","224.319","471.7"
"15.7433","4083.18","0.131194","224.351","472.3"
"15.7633","4083.83","0.131361","224.386","472.9"
"15.7833","4083.57","0.131527","224.372","473.5"
"15.8033","4084.26","0.131694","224.41","474.1"
"15.8233","4084.5","0.13186","224.423","474.7"
"15.8432","4084.64","0.132027","224.431","475.3"
"15.8633","4085.27","0.132194","224.465","475.9"
"15.8833","4085.74","0.13236","224.491","476.5"
"15.9033","4086.15","0.132527","224.514","477.1"
"15.9233","4085.97","0.132694","224.504","477.7"
"15.9433","4086.46","0.13286","224.531","478.3"
"15.9632","4086.56","0.133027","224.536","478.9"
"15.9833","4087.26","0.133194","224.574","479.5"
"16.0033","4087.19","0.13336","224.571","480.1"
"16.0233","4086.94","0.133527","224.557","480.7"
"16.0433","4087.79","0.133694","224.604","481.3"
"16.0633","4087.85","0.13386","224.607","481.9"
"16.0832","4088.31","0.134027","224.632","482.5"
"16.1033","4088.47","0.134193","224.641","483.1"
"16.1232","4088.84","0.13436","224.661","483.7"
"16.1433","4089.34","0.134527","224.689","484.3"
"16.1633","4089.71","0.134694","224.709","484.9"
"16.1833","4090.07","0.134861","224.729","485.5"
"16.2033","4090.48","0.135027","224.752","486.1"
"16.2232","4090.59","0.135193","224.758","486.7"
"16.2433","4090.75","0.13536","224.766","487.3"
"16.2633","4091.14","0.135527","224.788","487.9"
"16.2833","4091.88","0.135694","224.829","488.5"
"16.3033","4092.23","0.135861","224.848","489.1"
"16.3233","4092.58","0.136027","224.867","489.7"
"16.3433","4092.64","0.136193","224.871","490.3"
"16.3633","4092.84","0.13636","224.881","490.9"
"16.3832","4093.13","0.136526","224.897","491.5"
"16.4033","4093.19","0.136694","224.901","492.1"
"16.4233","4093.97","0.136861","224.943","492.7"
"16.4433","4094.21","0.137028","224.956","493.3"
"16.4633","4094.79","0.137194","224.988","493.9"
"16.4833","4094.61","0.13736","224.978","494.5"
"16.5032","4094.67","0.137527","224.982","495.1"
"16.5233","4095.41","0.137694","225.022","495.7"
"16.5433","4095.67","0.13786","225.037","496.3"
"16.5633","4095.93","0.138027","225.051","496.9"
"16.5833","4096.52","0.138194","225.084","497.5"
"16.6033","4096.62","0.13836","225.089","498.1"
"16.6233","4096.88","0.138527","225.103","498.7"
"16.6433","4096.36","0.138694","225.075","499.3"
"16.6632","4095.98","0.13886","225.054","499.9"
"16.6833","4096.4","0.139027","225.077","500.5"
"16.7033","4097.2","0.139194","225.121","501.1"
"16.7233","4097.22","0.139361","225.122","501.7"
"16.7433","4098.17","0.139527","225.174","502.3"
"16.7632","4098.09","0.139694","225.17","502.9"
"16.7833","4098.31","0.13986","225.182","503.5"
"16.8032","4097.94","0.140027","225.161","504.1"
"16.8233","4098.35","0.140194","225.184","504.7"
"16.8433","4098.37","0.14036","225.185","505.3"
"16.8633","4098.52","0.140527","225.193","505.9"
"16.8833","4098.86","0.140694","225.212","506.5"
"16.9033","4099.22","0.14086","225.232","507.1"
"16.9233","4099.3","0.141027","225.236","507.7"
"16.9432","4099.53","0.141193","225.249","508.3"
"16.9633","4100.38","0.141361","225.295","508.9"
"16.9833","4100.6","0.141527","225.308","509.5"
"17.0033","4101.17","0.141694","225.339","510.1"
"17.0233","4101.37","0.14186","225.35","510.7"
"17.0432","4101.08","0.142027","225.334","511.3"
"17.0633","4101.29","0.142194","225.346","511.9"
"17.0832","4101.59","0.14236","225.362","512.5"
"17.1033","4102.4","0.142527","225.4068","513.1"
"17.1233","4102.78","0.142695","225.428","513.7"
"17.1433","4102.9","0.14286","225.434","514.3"
"17.1633","4103.12","0.143028","225.446","514.9"
"17.1832","4103.21","0.143193","225.451","515.5"
"17.2033","4103.52","0.14336","225.468","516.1"
"17.2232","4103.48","0.143527","225.466","516.7"
"17.2433","4104.14","0.143694","225.5024","517.3"
"17.2633","4104.17","0.14386","225.504","517.9"
"17.2833","4104.77","0.144027","225.537","518.5"
"17.3033","4104.71","0.144194","225.534","519.1"
"17.3232","4104.88","0.14436","225.543","519.7"
"17.3433","4104.92","0.144527","225.545","520.3"
"17.3632","4103.97","0.144693","225.493","520.9"
"17.3833","4104.74","0.14486","225.535","521.5"
"17.4033","4105.15","0.145028","225.558","522.1"
"17.4233","4105.33","0.145194","225.567","522.7"
"17.4433","4105.62","0.14536","225.583","523.3"
"17.4632","4105.91","0.145527","225.599","523.9"
"17.4832","4105.98","0.145694","225.603","524.5"
"17.5033","4106.59","0.14586","225.6368","525.1"
"17.5233","4106.19","0.146027","225.615","525.7"
"17.5433","4107.1","0.146194","225.665","526.3"
"17.5633","4106.71","0.14636","225.643","526.9"
"17.5833","4107.02","0.146527","225.66","527.5"
"17.6032","4107.02","0.146693","225.661","528.1"
"17.6233","4106.98","0.14686","225.658","528.7"
"17.6433","4107.46","0.147027","225.684","529.3"
"17.6633","4107.7","0.147194","225.698","529.9"
"17.6833","4108.07","0.14736","225.718","530.5"
"17.7033","4107.95","0.147527","225.711","531.1"
"17.7233","4108.18","0.147693","225.724","531.7"
"17.7432","4108.14","0.14786","225.722","532.3"
"17.7632","4108.31","0.148027","225.731","532.9"
"17.7833","4108.89","0.148194","225.7632","533.5"
"17.8033","4109.07","0.14836","225.773","534.1"
"17.8233","4109.68","0.148527","225.807","534.7"
"17.8433","4109.57","0.148694","225.801","535.3"
"17.8633","4109.24","0.148861","225.782","535.9"
"17.8833","4108.53","0.149027","225.744","536.5"
"17.9032","4108.54","0.149193","225.744","537.1"
"17.9233","4109.19","0.14936","225.78","537.7"
"17.9433","4109.27","0.149527","225.784","538.3"
"17.9633","4109.93","0.149694","225.82","538.9"
"17.9833","4109.92","0.149861","225.82","539.5"
"18.0033","4110.17","0.150027","225.834","540.1"
"18.0233","4110.09","0.150193","225.829","540.7"
"18.0433","4110.22","0.15036","225.836","541.3"
"18.0633","4110.38","0.150527","225.845","541.9"
"18.0833","4110.5","0.150694","225.852","542.5"
"18.1033","4110.53","0.150861","225.853","543.1"
"18.1233","4107.9","0.151027","225.709","543.7"
"18.1433","4105.69","0.151194","225.588","544.3"
"18.1633","4105.52","0.15136","225.578","544.9"
"18.1832","4105.43","0.151527","225.573","545.5"
"18.2033","4105.44","0.151693","225.574","546.1"
"18.2233","4101.61","0.151861","225.363","546.7"
"18.2433","4080.46","0.152028","224.201","547.3"
"18.2633","4073.5","0.152194","223.819","547.9"
"18.2832","4073.52","0.15236","223.82","548.5"
"18.3033","4074.7","0.152527","223.884","549.1"
"18.3232","4075.31","0.152694","223.918","549.7"
"18.3433","4075.68","0.152861","223.939","550.3"
"18.3633","4076.39","0.153027","223.977","550.9"
"18.3833","4076.3","0.153194","223.972","551.5"
"18.4033","4076.01","0.15336","223.956","552.1"
"18.4233","4076.02","0.153527","223.957","552.7"
"18.4432","4075.38","0.153693","223.922","553.3"
"18.4633","4075.2","0.153861","223.912","553.9"
"18.4833","4074.75","0.154027","223.887","554.5"
"18.5033","4074.44","0.154194","223.87","555.1"
"18.5233","4073.65","0.154361","223.827","555.7"
"18.5433","4072.83","0.154527","223.782","556.3"
"18.5633","4068.9","0.154694","223.566","556.9"
"18.5832","4065.82","0.15486","223.397","557.5"
"18.6032","4064.83","0.155027","223.342","558.1"
"18.6233","4063.1","0.155194","223.247","558.7"
"18.6433","4054.91","0.15536","222.797","559.3"
"18.6633","4046.22","0.155527","222.32","559.9"
"18.6833","4043.85","0.155694","222.189","560.5"
"18.7033","4041.62","0.15586","222.067","561.1"
"18.7232","4038.65","0.156027","221.904","561.7"
"18.7432","4019.4","0.156194","220.846","562.3"
"18.7634","3249.9","0.156361","178.566","562.9"
"18.7833","3111.3","0.156527","170.95","563.5"
"18.8033","3093.75","0.156694","169.987","564.1"
"18.8232","3089.21","0.15686","169.737","564.7"
"18.8433","3089.12","0.157027","169.732","565.3"
"18.8632","3088.09","0.157193","169.675","565.9"
"18.8833","3087.62","0.15736","169.65","566.5"
"18.9033","3085.61","0.157527","169.539","567.1"
"18.9233","3083.91","0.157694","169.446","567.7"
"18.9433","3069.11","0.157861","168.633","568.3"
"18.9633","3031.34","0.158027","166.557","568.9"
"18.9832","2990","0.158193","164.2856","569.5"
"19.0033","2954.17","0.15836","162.317","570.1"
"19.0233","2730.09","0.158527","150.005","570.7"
"19.0433","2675.03","0.158694","146.979","571.3"
"19.0633","2612.48","0.158861","143.543","571.9"
"19.0833","2585.08","0.159027","142.038","572.5"
"19.1033","2281.53","0.159194","125.359","573.1"
"19.1148","-60.0747","0.15929","-3.30081","573.438"