File: experimental_data/tensile_specimen_test_data/tensile_test_data/20250312/original_data/without_extensometer/SSS 5 03-12-25 17 51 23 下午/数采：横梁, … - (实时值).csv
"文件路径: C:\Users\Lenovo\Desktop\Wayne\20250312\原始数据\无引伸计\SSS 5 03-12-25 17 51 23 下午\数采：横梁, … - (实时值).csv   "
"试验: MTS EM 拉伸试验-W 3"
"试验运行: SSS 5"
"日期: 2025/3/12 17:36:24"
""
""
"横梁 ","力 ","应变 ","应力 ","时间 "
"mm","N","mm/mm","N/mm²","sec"
"0.00274789","-64.4913","2.2511e-05","-3.543478","0.1"
"0.0299008","58.5016","0.000248785","3.21437","0.9"
"0.0566346","189.688","0.000471955","10.4224","1.7"
"0.0832752","318.922","0.00069396","17.52316","2.5"
"0.109962","445.698","0.000915965","24.4889","3.3"
"0.136603","569.066","0.00113797","31.2673","4.1"
"0.163244","688.878","0.00135997","37.8504","4.9"
"0.189931","805.079","0.00158237","44.2351","5.7"
"0.216618","917.007","0.00180515","50.385","6.5"
"0.243305","1025.43","0.00202715","56.3425","7.3"
"0.269899","1130.46","0.00224877","62.1134","8.1"
"0.29654","1233.11","0.00247116","67.7533","8.9"
"0.323273","1332.25","0.00269395","73.2008","9.7"
"0.349961","1428.86","0.00291595","78.5086","10.5"
"0.376648","1522.56","0.00313873","83.6573","11.3"
"0.403335","1612.02","0.00336074","88.5723","12.1"
"0.429882","1685.88","0.00358235","92.6309","12.9"
"0.45657","1765.27","0.00380475","96.99288","13.7"
"0.483303","1837.26","0.00402753","100.9482","14.5"
"0.509944","1901.02","0.00424914","104.452","15.3"
"0.536585","1957.56","0.00447115","107.558","16.1"
"0.563272","2010.27","0.00469354","110.455","16.9"
"0.589959","2061.17","0.00491594","113.251","17.7"
"0.616646","2109.6","0.00513833","115.912","18.5"
"0.643287","2155.62","0.00536072","118.441","19.3"
"0.669974","2199.42","0.00558273","120.847","20.1"
"0.696568","2240.77","0.00580434","123.119","20.9"
"0.723255","2280.86","0.00602713","125.322","21.7"
"0.749989","2319.45","0.00624952","127.443","22.5"
"0.776629","2356.09","0.00647152","129.455","23.3"
"0.80327","2391.13","0.00669353","131.381","24.1"
"0.829911","2424.8","0.00691553","133.231","24.9"
"0.856598","2457.06","0.00713793","135.003","25.7"
"0.883285","2487.35","0.00736032","136.667","26.5"
"0.909972","2516.19","0.0075831","138.252","27.3"
"0.936659","2543.85","0.00780511","139.772","28.1"
"0.963253","2570.13","0.00802672","141.216","28.9"
"0.989894","2595.52","0.00824873","142.611","29.7"
"1.01663","2620.3","0.00847151","143.973","30.5"
"1.04331","2644.33","0.0086939","145.293","31.3"
"1.06996","2666.91","0.0089163","146.533","32.1"
"1.0966","2688.85","0.00913791","147.739","32.9"
"1.12324","2709.73","0.00935992","148.886","33.7"
"1.14992","2730.11","0.00958231","150.006","34.5"
"1.17666","2750.16","0.00980509","151.108","35.3"
"1.20334","2769.24","0.0100275","152.156","36.1"
"1.22994","2786.97","0.0102491","153.13","36.9"
"1.25658","2804.39","0.0104711","154.087","37.7"
"1.28327","2821.46","0.0106939","155.025","38.5"
"1.30995","2838.02","0.0109163","155.935","39.3"
"1.33659","2853.97","0.0111383","156.811","40.1"
"1.36328","2868.89","0.0113603","157.631","40.9"
"1.38992","2883.95","0.0115827","158.459","41.7"
"1.41661","2898.36","0.0118047","159.2504","42.5"
"1.4433","2912.47","0.0120271","160.026","43.3"
"1.46998","2925.95","0.0122495","160.767","44.1"
"1.49658","2938.89","0.0124715","161.478","44.9"
"1.52326","2951.95","0.0126935","162.195","45.7"
"1.54995","2964.27","0.0129159","162.872","46.5"
"1.57664","2976.53","0.0131383","163.545","47.3"
"1.60328","2988.27","0.0133603","164.191","48.1"
"1.62992","2999.77","0.0135827","164.8224","48.9"
"1.65656","3010.66","0.0138043","165.421","49.7"
"1.6832","3021.23","0.0140267","166.0016","50.5"
"1.70998","3030.64","0.0142495","166.519","51.3"
"1.73667","3041.84","0.0144722","167.134","52.1"
"1.76331","3051.91","0.0146939","167.688","52.9"
"1.7899","3061.41","0.0149159","168.209","53.7"
"1.81659","3070.82","0.0151379","168.726","54.5"
"1.84328","3080.67","0.0153603","169.267","55.3"
"1.86997","3089.89","0.015583","169.774","56.1"
"1.89661","3098.84","0.015805","170.266","56.9"
"1.92325","3107.51","0.0160267","170.742","57.7"
"1.94989","3115.73","0.0162487","171.194","58.5"
"1.97662","3124.51","0.0164715","171.676","59.3"
"2.00331","3133.17","0.0166942","172.152","60.1"
"2.02995","3140.97","0.0169162","172.581","60.9"
"2.05664","3149.04","0.0171382","173.024","61.7"
"2.08328","3150.96","0.0173602","173.13","62.5"
"2.10992","3160.46","0.0175823","173.652","63.3"
"2.1366","3168.57","0.0178046","174.097","64.1"
"2.16329","3176.27","0.018027","174.52","64.9"
"2.18993","3183.71","0.018249","174.929","65.7"
"2.21657","3191.14","0.0184711","175.337","66.5"
"2.24326","3198.3","0.0186938","175.731","67.3"
"2.26999","3205.08","0.0189162","176.104","68.1"
"2.29663","3212.15","0.0191382","176.492","68.9"
"2.32327","3218.61","0.0193602","176.847","69.7"
"2.34992","3225.3","0.0195822","177.214","70.5"
"2.3766","3231.67","0.0198046","177.564","71.3"
"2.40329","3238.24","0.0200274","177.925","72.1"
"2.42998","3244.73","0.0202494","178.282","72.9"
"2.45662","3251","0.0204714","178.626","73.7"
"2.48321","3256.61","0.0206934","178.934","74.5"
"2.5099","3262.81","0.0209158","179.275","75.3"
"2.53668","3269.37","0.0211386","179.6356","76.1"
"2.56332","3275.12","0.0213606","179.952","76.9"
"2.58996","3280.71","0.0215826","180.259","77.7"
"2.6166","3286.24","0.0218046","180.563","78.5"
"2.64324","3292.21","0.0220266","180.891","79.3"
"2.66993","3297.93","0.022249","181.205","80.1"
"2.69666","3303.81","0.0224718","181.528","80.9"
"2.7233","3309.49","0.0226938","181.84","81.7"
"2.7499","3314.59","0.0229158","182.12","82.5"
"2.77658","3320.19","0.0231378","182.428","83.3"
"2.80327","3325.34","0.0233602","182.711","84.1"
"2.82996","3330.61","0.0235826","183","84.9"
"2.85665","3336.36","0.023805","183.316","85.7"
"2.88329","3341.23","0.0240274","183.584","86.5"
"2.90993","3346.49","0.024249","183.873","87.3"
"2.93661","3351.55","0.0244714","184.151","88.1"
"2.9633","3331.74","0.0246942","183.063","88.9"
"2.98999","3349.71","0.0249162","184.05","89.7"
"3.01658","3359.09","0.0251378","184.565","90.5"
"3.04322","3365.36","0.0253602","184.91","91.3"
"3.06996","3371.51","0.0255826","185.248","92.1"
"3.0966","3376.66","0.025805","185.531","92.9"
"3.12328","3381.87","0.0260274","185.817","93.7"
"3.14997","3386.89","0.0262494","186.093","94.5"
"3.17657","3391.19","0.026471","186.329","95.3"
"3.2033","3396.49","0.0266938","186.62","96.1"
"3.23003","3401.65","0.0269166","186.904","96.9"
"3.25663","3406.3","0.0271382","187.159","97.7"
"3.28322","3410.38","0.0273602","187.384","98.5"
"3.30991","3414.85","0.0275822","187.629","99.3"
"3.3366","3419.55","0.0278046","187.887","100.1"
"3.36328","3424.43","0.028027","188.155","100.9"
"3.39002","3408.54","0.0282497","187.282","101.7"
"3.41666","3420.78","0.0284718","187.955","102.5"
"3.44325","3429.34","0.0286934","188.425","103.3"
"3.46994","3435.27","0.0289158","188.751","104.1"
"3.49663","3440.68","0.0291382","189.048","104.9"
"3.52331","3445.34","0.0293606","189.305","105.7"
"3.54995","3450.32","0.0295826","189.578","106.5"
"3.57659","3454.64","0.0298046","189.815","107.3"
"3.60323","3458.8","0.0300266","190.044","108.1"
"3.62992","3462.99","0.030249","190.274","108.9"
"3.65666","3467.68","0.0304717","190.532","109.7"
"3.68334","3472.16","0.0306945","190.778","110.5"
"3.70994","3475.45","0.0309158","190.959","111.3"
"3.73658","3479.56","0.0311378","191.184","112.1"
"3.76326","3483.91","0.0313605","191.423","112.9"
"3.78995","3488.14","0.0315825","191.656","113.7"
"3.81659","3492.03","0.0318045","191.87","114.5"
"3.84328","3495.68","0.0320269","192.07","115.3"
"3.86992","3499.64","0.0322489","192.288","116.1"
"3.89661","3503.51","0.0324713","192.5","116.9"
"3.92334","3508.08","0.0326941","192.751","117.7"
"3.94998","3512.16","0.0329165","192.976","118.5"
"3.97658","3515.52","0.0331377","193.16","119.3"
"4.00326","3519.32","0.0333601","193.369","120.1"
"4.02995","3523.45","0.0335825","193.596","120.9"
"4.05664","3527.42","0.0338049","193.814","121.7"
"4.08328","3530.76","0.0340269","193.998","122.5"
"4.10997","3534.39","0.0342493","194.197","123.3"
"4.13661","3537.95","0.0344713","194.393","124.1"
"4.16325","3541.47","0.0346933","194.586","124.9"
"4.18998","3545.42","0.0349161","194.803","125.7"
"4.21667","3549.41","0.0351389","195.023","126.5"
"4.24326","3552.61","0.0353605","195.198","127.3"
"4.2699","3556.4","0.0355825","195.4068","128.1"
"4.29659","3559.68","0.0358045","195.587","128.9"
"4.32328","3563.2","0.0360269","195.78","129.7"
"4.34996","3567.25","0.0362497","196.003","130.5"
"4.37665","3570.81","0.0364717","196.1984","131.3"
"4.40324","3574.22","0.0366933","196.385","132.1"
"4.42989","3577.41","0.0369153","196.561","132.9"
"4.45662","3581.02","0.0371381","196.7592","133.7"
"4.48331","3585","0.0373609","196.978","134.5"
"4.50995","3588.02","0.0375825","197.144","135.3"
"4.53663","3590.89","0.0378049","197.301","136.1"
"4.56327","3594.41","0.0380269","197.495","136.9"
"4.58991","3598.15","0.0382493","197.7","137.7"
"4.6166","3601.41","0.0384717","197.88","138.5"
"4.64329","3603.66","0.0386937","198.003","139.3"
"4.66993","3607.33","0.0389157","198.205","140.1"
"4.69657","3610.44","0.0391377","198.376","140.9"
"4.72326","3613.56","0.0393601","198.547","141.7"
"4.74999","3617.08","0.0395829","198.741","142.5"
"4.77663","3620.32","0.0398049","198.918","143.3"
"4.80327","3623.54","0.0400269","199.095","144.1"
"4.82996","3626.71","0.0402493","199.27","144.9"
"4.8566","3629.49","0.0404713","199.422","145.7"
"4.88329","3632.77","0.0406941","199.603","146.5"
"4.90997","3636.04","0.0409161","199.783","147.3"
"4.93662","3639.01","0.0411381","199.946","148.1"
"4.96321","3641.54","0.0413597","200.0848","148.9"
"4.9899","3644.54","0.0415821","200.249","149.7"
"5.01663","3648.12","0.0418053","200.446","150.5"
"5.04332","3651.28","0.0420273","200.62","151.3"
"5.06996","3654.13","0.0422493","200.776","152.1"
"5.0966","3657.29","0.0424717","200.95","152.9"
"5.12324","3659.92","0.0426937","201.095","153.7"
"5.14993","3663.1","0.0429161","201.269","154.5"
"5.17666","3666.43","0.0431384","201.452","155.3"
"5.2033","3669.21","0.0433605","201.605","156.1"
"5.2299","3671.49","0.0435821","201.73","156.9"
"5.25658","3674.21","0.0438045","201.879","157.7"
"5.28332","3677.38","0.0440272","202.054","158.5"
"5.30996","3680.39","0.0442492","202.219","159.3"
"5.33664","3683.21","0.0444716","202.374","160.1"
"5.36333","3685.86","0.044694","202.52","160.9"
"5.38992","3688.79","0.0449157","202.681","161.7"
"5.41657","3691.34","0.045138","202.821","162.5"
"5.4433","3694.17","0.0453604","202.976","163.3"
"5.46994","3696.79","0.0455824","203.12","164.1"
"5.49658","3699.47","0.0458044","203.268","164.9"
"5.52327","3702.12","0.0460268","203.413","165.7"
"5.54995","3704.9","0.0462492","203.566","166.5"
"5.57664","3707.27","0.0464716","203.696","167.3"
"5.60333","3710.06","0.046694","203.85","168.1"
"5.62997","3712.7","0.046916","203.995","168.9"
"5.65656","3714.78","0.0471376","204.109","169.7"
"5.68325","3717.22","0.0473604","204.243","170.5"
"5.70998","3720.26","0.0475832","204.41","171.3"
"5.73663","3722.76","0.0478048","204.547","172.1"
"5.76327","3724.78","0.0480268","204.658","172.9"
"5.78991","3727.41","0.0482488","204.803","173.7"
"5.81659","3730.22","0.0484716","204.957","174.5"
"5.84328","3732.9","0.048694","205.104","175.3"
"5.86997","3735.17","0.0489164","205.229","176.1"
"5.89666","3737.34","0.0491384","205.349","176.9"
"5.92325","3739.54","0.04936","205.469","177.7"
"5.94989","3742.18","0.0495824","205.614","178.5"
"5.97662","3744.68","0.0498048","205.752","179.3"
"6.00331","3746.74","0.0500272","205.865","180.1"
"6.02995","3749.29","0.0502496","206.005","180.9"
"6.05659","3751.5","0.0504712","206.126","181.7"
"6.08323","3753.86","0.0506936","206.256","182.5"
"6.10992","3756.09","0.0509156","206.379","183.3"
"6.13665","3758.79","0.0511384","206.527","184.1"
"6.16334","3761.06","0.0513608","206.652","184.9"
"6.18993","3762.98","0.0515824","206.757","185.7"
"6.21658","3764.93","0.0518044","206.864","186.5"
"6.24326","3767.16","0.0520272","206.987","187.3"
"6.27","3769.63","0.0522496","207.123","188.1"
"6.29664","3771.86","0.0524716","207.245","188.9"
"6.32328","3773.84","0.0526936","207.354","189.7"
"6.34992","3776.15","0.0529156","207.481","190.5"
"6.37661","3778.27","0.053138","207.597","191.3"
"6.40329","3780.29","0.0533604","207.708","192.1"
"6.42998","3782.87","0.0535832","207.85","192.9"
"6.45657","3784.44","0.0538048","207.9364","193.7"
"6.48326","3786.34","0.0540268","208.041","194.5"
"6.50999","3788.94","0.0542496","208.184","195.3"
"6.53664","3791.35","0.054472","208.316","196.1"
"6.56328","3793.04","0.0546936","208.409","196.9"
"6.58992","3794.78","0.054916","208.504","197.7"
"6.61656","3796.72","0.0551376","208.611","198.5"
"6.64324","3798.92","0.05536","208.732","199.3"
"6.66998","3800.89","0.0555828","208.84","200.1"
"6.69667","3802.79","0.0558052","208.944","200.9"
"6.72331","3804.88","0.0560272","209.059","201.7"
"6.74995","3806.79","0.0562492","209.164","202.5"
"6.77659","3808.71","0.0564716","209.27","203.3"
"6.80327","3810.54","0.0566936","209.37","204.1"
"6.82996","3812.55","0.0569163","209.481","204.9"
"6.85665","3814.45","0.0571383","209.585","205.7"
"6.88324","3815.98","0.05736","209.669","206.5"
"6.90988","3817.54","0.057582","209.755","207.3"
"6.93662","3814.66","0.0578048","209.597","208.1"
"6.96335","3818.63","0.0580275","209.8148","208.9"
"6.98999","3821.02","0.0582495","209.946","209.7"
"7.01663","3823.17","0.0584715","210.064","210.5"
"7.04327","3824.95","0.0586935","210.162","211.3"
"7.06991","3827.03","0.0589159","210.276","212.1"
"7.0966","3828.83","0.0591383","210.376","212.9"
"7.12329","3830.59","0.0593603","210.472","213.7"
"7.14993","3832.16","0.0595823","210.558","214.5"
"7.17657","3834.07","0.0598047","210.6632","215.3"
"7.2033","3835.92","0.0600271","210.765","216.1"
"7.22999","3837.9","0.0602495","210.873","216.9"
"7.25663","3839.42","0.0604715","210.957","217.7"
"7.28327","3840.9","0.0606935","211.038","218.5"
"7.30996","3842.67","0.0609159","211.136","219.3"
"7.3366","3844.35","0.0611379","211.228","220.1"
"7.36329","3846.22","0.0613607","211.331","220.9"
"7.38997","3847.66","0.0615827","211.41","221.7"
"7.41661","3849.41","0.0618047","211.506","222.5"
"7.44321","3850.86","0.0620267","211.586","223.3"
"7.46989","3852.5","0.0622487","211.676","224.1"
"7.49668","3854.33","0.0624719","211.776","224.9"
"7.52332","3855.77","0.0626939","211.856","225.7"
"7.54996","3857.57","0.0629159","211.955","226.5"
"7.5766","3858.87","0.0631379","212.026","227.3"
"7.60324","3860","0.0633599","212.088","228.1"
"7.62992","3861.87","0.0635823","212.191","228.9"
"7.65666","3863.75","0.0638055","212.294","229.7"
"7.6833","3865.16","0.0640271","212.371","230.5"
"7.70989","3866.14","0.0642487","212.425","231.3"
"7.73658","3867.84","0.0644711","212.519","232.1"
"7.76327","3869.86","0.0646939","212.63","232.9"
"7.78995","3871.24","0.0649159","212.705","233.7"
"7.81664","3872.64","0.0651383","212.782","234.5"
"7.84328","3873.74","0.0653607","212.843","235.3"
"7.86992","3875.33","0.0655823","212.93","236.1"
"7.89661","3876.72","0.0658047","213.007","236.9"
"7.9233","3878.29","0.0660275","213.093","237.7"
"7.94998","3879.76","0.0662495","213.174","238.5"
"7.97658","3881.28","0.0664715","213.257","239.3"
"8.00327","3882.23","0.0666935","213.309","240.1"
"8.02995","3883.81","0.0669159","213.396","240.9"
"8.05659","3885.46","0.0671379","213.487","241.7"
"8.08328","3887.04","0.0673607","213.574","242.5"
"8.10997","3888.22","0.0675827","213.639","243.3"
"8.13656","3889.35","0.0678047","213.7","244.1"
"8.1633","3890.66","0.0680271","213.773","244.9"
"8.19003","3892.53","0.0682499","213.875","245.7"
"8.21662","3893.75","0.0684715","213.942","246.5"
"8.24326","3894.91","0.0686935","214.006","247.3"
"8.2699","3896.03","0.0689155","214.068","248.1"
"8.29659","3896.94","0.0691379","214.118","248.9"
"8.32328","3898.92","0.0693607","214.226","249.7"
"8.35001","3900.37","0.0695831","214.306","250.5"
"8.37665","3901.77","0.0698051","214.383","251.3"
"8.40325","3902.69","0.0700267","214.433","252.1"
"8.42993","3903.97","0.0702491","214.504","252.9"
"8.45662","3905.48","0.0704715","214.587","253.7"
"8.48331","3906.97","0.0706939","214.669","254.5"
"8.50995","3907.94","0.0709159","214.722","255.3"
"8.53659","3908.99","0.0711379","214.78","256.1"
"8.56323","3910.46","0.0713603","214.86","256.9"
"8.58992","3911.54","0.0715823","214.92","257.7"
"8.61665","3912.95","0.071805","214.997","258.5"
"8.64334","3914.07","0.0720274","215.059","259.3"
"8.66993","3915.24","0.0722494","215.123","260.1"
"8.69657","3916.48","0.0724714","215.191","260.9"
"8.72326","3917.36","0.0726938","215.24","261.7"
"8.74995","3918.58","0.0729158","215.307","262.5"
"8.77659","3919.94","0.0731382","215.381","263.3"
"8.80328","3921.26","0.0733602","215.454","264.1"
"8.82992","3922.05","0.0735822","215.497","264.9"
"8.8566","3922.92","0.0738046","215.5452","265.7"
"8.88334","3924.56","0.0740274","215.635","266.5"
"8.91002","3926.24","0.0742498","215.728","267.3"
"8.93657","3927.04","0.0744714","215.7716","268.1"
"8.96326","3927.8","0.0746934","215.813","268.9"
"8.98995","3929.17","0.0749158","215.888","269.7"
"9.01663","3930.45","0.0751382","215.959","270.5"
"9.04327","3931.56","0.0753602","216.02","271.3"
"9.06991","3932.53","0.0755826","216.073","272.1"
"9.0966","3933.12","0.0758046","216.105","272.9"
"9.12324","3934.51","0.0760266","216.182","273.7"
"9.14998","3935.93","0.0762494","216.26","274.5"
"9.17666","3937.36","0.0764722","216.3384","275.3"
"9.20326","3938.14","0.0766934","216.3812","276.1"
"9.2299","3939.24","0.0769158","216.441","276.9"
"9.25658","3940.07","0.0771382","216.487","277.7"
"9.28327","3941.18","0.0773602","216.548","278.5"
"9.30996","3942.48","0.0775826","216.62","279.3"
"9.33665","3943.41","0.0778054","216.671","280.1"
"9.36329","3944.17","0.078027","216.7124","280.9"
"9.38988","3945.29","0.0782486","216.774","281.7"
"9.41661","3946.27","0.0784714","216.828","282.5"
"9.4433","3947.85","0.0786942","216.915","283.3"
"9.46994","3948.95","0.0789162","216.975","284.1"
"9.49663","3949.69","0.0791382","217.016","284.9"
"9.52327","3950.38","0.0793602","217.054","285.7"
"9.54996","3951.53","0.0795826","217.117","286.5"
"9.57664","3952.76","0.079805","217.185","287.3"
"9.60329","3953.74","0.0800274","217.238","288.1"
"9.62993","3954.47","0.080249","217.279","288.9"
"9.65657","3955.03","0.080471","217.309","289.7"
"9.68325","3956.56","0.0806938","217.393","290.5"
"9.70999","3957.78","0.0809162","217.461","291.3"
"9.73663","3958.81","0.0811382","217.5168","292.1"
"9.76327","3959.29","0.0813602","217.544","292.9"
"9.78996","3960.33","0.0815826","217.601","293.7"
"9.8166","3961.53","0.081805","217.666","294.5"
"9.84333","3962.57","0.0820274","217.724","295.3"
"9.86997","3963.43","0.0822494","217.771","296.1"
"9.89661","3964.52","0.0824714","217.831","296.9"
"9.9232","3965.18","0.082693","217.867","297.7"
"9.94989","3965.93","0.0829154","217.908","298.5"
"9.97667","3967.22","0.0831385","217.979","299.3"
"10.0033","3968.13","0.0833606","218.029","300.1"
"10.03","3969.23","0.083583","218.09","300.9"
"10.0566","3969.97","0.083805","218.13","301.7"
"10.0832","3970.77","0.0840266","218.174","302.5"
"10.1099","3971.66","0.0842494","218.2232","303.3"
"10.1367","3973.04","0.0844717","218.299","304.1"
"10.1633","3973.98","0.0846938","218.351","304.9"
"10.1899","3974.35","0.0849154","218.371","305.7"
"10.2165","3975.12","0.0851378","218.413","306.5"
"10.2433","3976.47","0.0853605","218.487","307.3"
"10.27","3977.23","0.0855825","218.529","308.1"
"10.2966","3978.22","0.0858049","218.584","308.9"
"10.3233","3978.95","0.0860273","218.623","309.7"
"10.3499","3979.77","0.0862489","218.669","310.5"
"10.3766","3980.69","0.0864713","218.719","311.3"
"10.4033","3981.84","0.0866937","218.783","312.1"
"10.4299","3982.51","0.0869157","218.819","312.9"
"10.4566","3983.19","0.0871377","218.856","313.7"
"10.4833","3984.03","0.0873601","218.903","314.5"
"10.51","3985.22","0.0875829","218.968","315.3"
"10.5366","3985.95","0.0878049","219.008","316.1"
"10.5633","3986.84","0.0880273","219.057","316.9"
"10.59","3987.96","0.0882493","219.118","317.7"
"10.6166","3988.66","0.0884713","219.157","318.5"
"10.6432","3989.44","0.0886937","219.2","319.3"
"10.67","3990.09","0.0889161","219.236","320.1"
"10.6966","3990.97","0.0891381","219.284","320.9"
"10.7233","3991.82","0.0893601","219.331","321.7"
"10.7499","3992.59","0.0895821","219.373","322.5"
"10.7766","3993.48","0.0898049","219.422","323.3"
"10.8033","3994.21","0.0900273","219.462","324.1"
"10.83","3995.68","0.0902497","219.543","324.9"
"10.8567","3996.29","0.0904717","219.576","325.7"
"10.8832","3996.51","0.0906933","219.589","326.5"
"10.9099","3997.16","0.0909157","219.624","327.3"
"10.9366","3998.33","0.0911385","219.689","328.1"
"10.9633","3999.22","0.0913605","219.737","328.9"
"10.9899","3999.93","0.0915829","219.776","329.7"
"11.0166","4000.45","0.0918045","219.805","330.5"
"11.0432","4001.54","0.0920269","219.865","331.3"
"11.0699","4002.22","0.0922489","219.902","332.1"
"11.0966","4003.15","0.0924717","219.954","332.9"
"11.1233","4003.84","0.0926941","219.991","333.7"
"11.1499","4004.48","0.0929157","220.027","334.5"
"11.1766","4005.3","0.0931381","220.072","335.3"
"11.2033","4006","0.0933605","220.11","336.1"
"11.23","4006.74","0.0935829","220.151","336.9"
"11.2566","4007.39","0.0938049","220.186","337.7"
"11.2833","4008.07","0.0940269","220.224","338.5"
"11.3099","4008.98","0.0942493","220.274","339.3"
"11.3366","4009.49","0.0944713","220.302","340.1"
"11.3633","4010.06","0.0946937","220.333","340.9"
"11.39","4011.05","0.0949165","220.387","341.7"
"11.4166","4011.51","0.0951381","220.412","342.5"
"11.4433","4012.2","0.0953601","220.45","343.3"
"11.4699","4012.93","0.0955829","220.491","344.1"
"11.4966","4013.96","0.0958053","220.547","344.9"
"11.5233","4014.66","0.0960273","220.586","345.7"
"11.5499","4015.25","0.0962493","220.618","346.5"
"11.5766","4015.52","0.0964709","220.633","347.3"
"11.6032","4016.4","0.0966933","220.681","348.1"
"11.63","4017.42","0.0969161","220.738","348.9"
"11.6567","4018.3","0.0971388","220.786","349.7"
"11.6833","4018.35","0.0973605","220.789","350.5"
"11.7099","4018.91","0.0975825","220.819","351.3"
"11.7366","4019.86","0.0978049","220.871","352.1"
"11.7633","4020.85","0.0980269","220.926","352.9"
"11.79","4021.43","0.0982496","220.9576","353.7"
"11.8166","4022.07","0.0984716","220.993","354.5"
"11.8432","4022.78","0.0986937","221.032","355.3"
"11.8699","4022.95","0.0989157","221.041","356.1"
"11.8966","4023.83","0.0991381","221.09","356.9"
"11.9233","4024.86","0.0993608","221.146","357.7"
"11.95","4025.63","0.0995828","221.189","358.5"
"11.9766","4026.36","0.0998048","221.228","359.3"
"12.0033","4027.04","0.100027","221.266","360.1"
"12.0299","4027.37","0.100249","221.284","360.9"
"12.0566","4028.02","0.100472","221.32","361.7"
"12.0833","4028.74","0.100694","221.359","362.5"
"12.1099","4028.95","0.100916","221.3708","363.3"
"12.1366","4029.76","0.101138","221.415","364.1"
"12.1633","4030.61","0.10136","221.462","364.9"
"12.19","4031.47","0.101583","221.51","365.7"
"12.2166","4032.32","0.101805","221.556","366.5"
"12.2433","4032.63","0.102027","221.573","367.3"
"12.2699","4033.08","0.102249","221.598","368.1"
"12.2966","4033.85","0.102471","221.64","368.9"
"12.3233","4034.59","0.102694","221.681","369.7"
"12.35","4035.07","0.102916","221.707","370.5"
"12.3766","4035.61","0.103138","221.737","371.3"
"12.4032","4035.89","0.10336","221.752","372.1"
"12.4299","4036.68","0.103582","221.796","372.9"
"12.4567","4037.94","0.103805","221.865","373.7"
"12.4833","4038.5","0.104027","221.896","374.5"
"12.51","4038.84","0.104249","221.914","375.3"
"12.5366","4039.2","0.104472","221.934","376.1"
"12.5632","4039.87","0.104693","221.971","376.9"
"12.5899","4040.09","0.104916","221.983","377.7"
"12.6167","4040.8","0.105139","222.022","378.5"
"12.6433","4041.68","0.105361","222.07","379.3"
"12.6699","4042.16","0.105582","222.096","380.1"
"12.6966","4042.77","0.105804","222.13","380.9"
"12.7233","4043.09","0.106027","222.148","381.7"
"12.75","4044.13","0.106249","222.205","382.5"
"12.7766","4044.78","0.106472","222.241","383.3"
"12.8033","4045.34","0.106694","222.271","384.1"
"12.8299","4045.27","0.106916","222.268","384.9"
"12.8566","4046.14","0.107138","222.316","385.7"
"12.8833","4046.93","0.107361","222.359","386.5"
"12.91","4047.26","0.107583","222.377","387.3"
"12.9366","4047.77","0.107805","222.405","388.1"
"12.9633","4048.16","0.108027","222.427","388.9"
"12.9899","4049.02","0.108249","222.474","389.7"
"13.0166","4049.61","0.108471","222.506","390.5"
"13.0433","4050.08","0.108694","222.532","391.3"
"13.07","4050.97","0.108916","222.581","392.1"
"13.0966","4051.23","0.109138","222.595","392.9"
"13.1233","4051.75","0.10936","222.624","393.7"
"13.15","4052.47","0.109583","222.663","394.5"
"13.1766","4053.07","0.109805","222.696","395.3"
"13.2033","4053.51","0.110027","222.721","396.1"
"13.2299","4054.21","0.110249","222.759","396.9"
"13.2566","4054.56","0.110471","222.778","397.7"
"13.2833","4052.87","0.110694","222.685","398.5"
"13.31","4053.88","0.110916","222.741","399.3"
"13.3366","4055.05","0.111138","222.805","400.1"
"13.3632","4055.45","0.11136","222.827","400.9"
"13.3899","4055.93","0.111582","222.853","401.7"
"13.4166","4056.89","0.111805","222.906","402.5"
"13.4433","4057.53","0.112028","222.941","403.3"
"13.4699","4057.85","0.112249","222.959","404.1"
"13.4966","4058.31","0.112471","222.984","404.9"
"13.5232","4058.74","0.112694","223.008","405.7"
"13.5499","4059.36","0.112916","223.042","406.5"
"13.5766","4060.29","0.113138","223.093","407.3"
"13.6033","4061.06","0.113361","223.135","408.1"
"13.6299","4061.09","0.113583","223.137","408.9"
"13.6566","4061.57","0.113805","223.163","409.7"
"13.6833","4062.15","0.114027","223.195","410.5"
"13.7099","4062.88","0.114249","223.235","411.3"
"13.7366","4062.88","0.114472","223.235","412.1"
"13.7633","4063.36","0.114694","223.262","412.9"
"13.7899","4064.08","0.114916","223.301","413.7"
"13.8166","4064.47","0.115138","223.323","414.5"
"13.8433","4065","0.115361","223.352","415.3"
"13.87","4065.65","0.115583","223.387","416.1"
"13.8966","4065.94","0.115805","223.403","416.9"
"13.9233","4066.16","0.116027","223.415","417.7"
"13.9499","4067.02","0.116249","223.463","418.5"
"13.9766","4067.36","0.116472","223.481","419.3"
"14.0033","4068.21","0.116694","223.528","420.1"
"14.03","4068.53","0.116916","223.546","420.9"
"14.0566","4068.73","0.117138","223.557","421.7"
"14.0832","4068.94","0.11736","223.568","422.5"
"14.11","4070.01","0.117583","223.627","423.3"
"14.1367","4070.68","0.117805","223.664","424.1"
"14.1633","4071.05","0.118027","223.684","424.9"
"14.1899","4071.13","0.118249","223.688","425.7"
"14.2166","4071.8","0.118472","223.725","426.5"
"14.2433","4072.375","0.118694","223.757","427.3"
"14.27","4073.16","0.118916","223.8","428.1"
"14.2966","4073.52","0.119138","223.82","428.9"
"14.3232","4073.56","0.11936","223.822","429.7"
"14.3499","4074.21","0.119582","223.858","430.5"
"14.3766","4074.74","0.119805","223.887","431.3"
"14.4033","4075.57","0.120027","223.932","432.1"
"14.4299","4075.63","0.120249","223.936","432.9"
"14.4566","4076.5","0.120471","223.983","433.7"
"14.4833","4076.65","0.120693","223.992","434.5"
"14.5099","4077.15","0.120916","224.019","435.3"
"14.5366","4077.72","0.121138","224.05","436.1"
"14.5633","4078.33","0.121361","224.084","436.9"
"14.5899","4078.59","0.121583","224.098","437.7"
"14.6166","4078.88","0.121804","224.115","438.5"
"14.6432","4079.35","0.122027","224.14","439.3"
"14.67","4080","0.122249","224.176","440.1"
"14.6966","4080.46","0.122471","224.201","440.9"
"14.7233","4080.96","0.122693","224.229","441.7"
"14.75","4081.42","0.122916","224.254","442.5"
"14.7766","4081.81","0.123138","224.2752","443.3"
"14.8033","4082.44","0.123361","224.31","444.1"
"14.83","4082.97","0.123583","224.339","444.9"
"14.8566","4083.22","0.123805","224.353","445.7"
"14.8832","4083.46","0.124026","224.366","446.5"
"14.9099","4084.07","0.124249","224.399","447.3"
"14.9367","4084.72","0.124472","224.435","448.1"
"14.9633","4085.17","0.124694","224.46","448.9"
"14.9899","4085.3","0.124916","224.467","449.7"
"15.0166","4085.99","0.125138","224.505","450.5"
"15.0432","4086.36","0.12536","224.525","451.3"
"15.0699","4086.83","0.125583","224.551","452.1"
"15.0967","4087.25","0.125805","224.574","452.9"
"15.1233","4087.83","0.126027","224.606","453.7"
"15.1499","4088.12","0.126249","224.622","454.5"
"15.1766","4088.33","0.126471","224.634","455.3"
"15.2033","4088.84","0.126694","224.662","456.1"
"15.2299","4089.56","0.126916","224.701","456.9"
"15.2567","4090.16","0.127139","224.734","457.7"
"15.2833","4090.45","0.127361","224.75","458.5"
"15.3099","4090.83","0.127582","224.771","459.3"
"15.3366","4090.97","0.127805","224.779","460.1"
"15.3633","4091.63","0.128027","224.815","460.9"
"15.3899","4091.98","0.128249","224.834","461.7"
"15.4166","4092.43","0.128471","224.859","462.5"
"15.4433","4092.38","0.128693","224.856","463.3"
"15.4699","4093.18","0.128916","224.9","464.1"
"15.4966","4093.78","0.129138","224.9332","464.9"
"15.5233","4094.29","0.129361","224.961","465.7"
"15.55","4094.52","0.129583","224.974","466.5"
"15.5766","4094.7","0.129805","224.983","467.3"
"15.6033","4095.24","0.130027","225.013","468.1"
"15.63","4095.8","0.130249","225.044","468.9"
"15.6566","4096.15","0.130471","225.063","469.7"
"15.6833","4096.36","0.130693","225.075","470.5"
"15.7099","4096.76","0.130915","225.097","471.3"
"15.7366","4097.21","0.131138","225.121","472.1"
"15.7633","4097.63","0.131361","225.144","472.9"
"15.79","4098.26","0.131583","225.179","473.7"
"15.8166","4098.71","0.131805","225.204","474.5"
"15.8432","4099.21","0.132027","225.231","475.3"
"15.8699","4099.41","0.132249","225.242","476.1"
"15.8966","4099.63","0.132471","225.254","476.9"
"15.9233","4100.25","0.132694","225.288","477.7"
"15.95","4100.72","0.132916","225.314","478.5"
"15.9766","4100.71","0.133138","225.314","479.3"
"16.0032","4100.91","0.13336","225.325","480.1"
"16.0299","4101.73","0.133582","225.37","480.9"
"16.0566","4102.07","0.133805","225.388","481.7"
"16.0833","4102.64","0.134027","225.42","482.5"
"16.1099","4102.79","0.134249","225.428","483.3"
"16.1366","4102.94","0.134471","225.436","484.1"
"16.1633","4103.35","0.134694","225.459","484.9"
"16.19","4104.26","0.134916","225.509","485.7"
"16.2166","4104.37","0.135138","225.515","486.5"
"16.2433","4104.75","0.13536","225.536","487.3"
"16.27","4105","0.135583","225.549","488.1"
"16.2966","4105.28","0.135805","225.565","488.9"
"16.3233","4105.46","0.136027","225.575","489.7"
"16.35","4105.86","0.13625","225.597","490.5"
"16.3766","4106.1","0.136471","225.61","491.3"
"16.4033","4106.64","0.136693","225.639","492.1"
"16.43","4106.85","0.136916","225.651","492.9"
"16.4566","4107.32","0.137139","225.677","493.7"
"16.4833","4107.7","0.137361","225.698","494.5"
"16.51","4108.2","0.137583","225.725","495.3"
"16.5365","4108.39","0.137805","225.736","496.1"
"16.5632","4108.7","0.138027","225.753","496.9"
"16.59","4108.92","0.138249","225.765","497.7"
"16.6167","4109.88","0.138472","225.8176","498.5"
"16.6433","4109.84","0.138694","225.815","499.3"
"16.6699","4110.11","0.138916","225.83","500.1"
"16.6966","4110.11","0.139138","225.83","500.9"
"16.7233","4110.8","0.139361","225.8684","501.7"
"16.75","4111.33","0.139583","225.897","502.5"
"16.7766","4111.79","0.139805","225.923","503.3"
"16.8032","4111.66","0.140027","225.915","504.1"
"16.8299","4111.9","0.140249","225.929","504.9"
"16.8566","4112.51","0.140471","225.962","505.7"
"16.8833","4113.13","0.140694","225.996","506.5"
"16.91","4113.54","0.140916","226.019","507.3"
"16.9366","4113.62","0.141138","226.023","508.1"
"16.9633","4114.47","0.141361","226.07","508.9"
"16.9899","4114.54","0.141582","226.074","509.7"
"17.0166","4114.88","0.141805","226.092","510.5"
"17.0433","4115.5","0.142027","226.126","511.3"
"17.0699","4115.51","0.142249","226.127","512.1"
"17.0966","4115.8","0.142471","226.143","512.9"
"17.1233","4116.38","0.142694","226.175","513.7"
"17.15","4116.76","0.142917","226.196","514.5"
"17.1766","4117.44","0.143139","226.233","515.3"
"17.2033","4117.74","0.143361","226.249","516.1"
"17.2299","4117.89","0.143583","226.258","516.9"
"17.2566","4118.06","0.143805","226.267","517.7"
"17.2833","4118.53","0.144027","226.293","518.5"
"17.31","4118.77","0.14425","226.306","519.3"
"17.3366","4119.17","0.144471","226.328","520.1"
"17.3632","4119.12","0.144693","226.325","520.9"
"17.3899","4119.68","0.144916","226.356","521.7"
"17.4167","4120.34","0.145139","226.392","522.5"
"17.4433","4120.73","0.14536","226.4136","523.3"
"17.4699","4120.9","0.145583","226.423","524.1"
"17.4966","4121.31","0.145805","226.445","524.9"
"17.5232","4121.47","0.146027","226.455","525.7"
"17.5499","4121.63","0.146249","226.463","526.5"
"17.5766","4122.38","0.146472","226.5044","527.3"
"17.6033","4122.7","0.146694","226.522","528.1"
"17.6299","4122.89","0.146916","226.533","528.9"
"17.6566","4123.28","0.147138","226.554","529.7"
"17.6833","4123.87","0.14736","226.586","530.5"
"17.7099","4124.32","0.147583","226.611","531.3"
"17.7366","4124.53","0.147805","226.623","532.1"
"17.7633","4124.94","0.148027","226.645","532.9"
"17.7899","4125.26","0.148249","226.663","533.7"
"17.8166","4125.47","0.148471","226.674","534.5"
"17.8433","4125.97","0.148694","226.701","535.3"
"17.87","4126.43","0.148916","226.727","536.1"
"17.8966","4126.66","0.149138","226.739","536.9"
"17.9233","4126.88","0.14936","226.751","537.7"
"17.9499","4127.39","0.149582","226.78","538.5"
"17.9766","4127.51","0.149805","226.786","539.3"
"18.0033","4128.15","0.150027","226.821","540.1"
"18.03","4128.37","0.150249","226.833","540.9"
"18.0566","4128.3","0.150471","226.829","541.7"
"18.0833","4128.59","0.150694","226.846","542.5"
"18.11","4129.26","0.150916","226.883","543.3"
"18.1366","4129.55","0.151138","226.898","544.1"
"18.1633","4129.41","0.15136","226.891","544.9"
"18.1899","4129.9","0.151582","226.918","545.7"
"18.2166","4130.49","0.151804","226.95","546.5"
"18.2433","4130.83","0.152027","226.969","547.3"
"18.27","4131.13","0.15225","226.985","548.1"
"18.2966","4131.38","0.152472","226.999","548.9"
"18.3232","4131.53","0.152694","227.007","549.7"
"18.3499","4131.63","0.152916","227.013","550.5"
"18.3766","4132.31","0.153138","227.05","551.3"
"18.4033","4132.88","0.153361","227.081","552.1"
"18.4299","4133.04","0.153583","227.09","552.9"
"18.4566","4133.21","0.153804","227.0996","553.7"
"18.4832","4133.52","0.154027","227.116","554.5"
"18.5099","4133.77","0.154249","227.13","555.3"
"18.5366","4134.23","0.154472","227.155","556.1"
"18.5633","4135.01","0.154694","227.198","556.9"
"18.5899","4135.24","0.154916","227.211","557.7"
"18.6166","4135.31","0.155138","227.215","558.5"
"18.6433","4135.58","0.15536","227.23","559.3"
"18.6699","4136.28","0.155583","227.268","560.1"
"18.6966","4136.3","0.155805","227.269","560.9"
"18.7233","4136.72","0.156027","227.292","561.7"
"18.7499","4136.59","0.156249","227.285","562.5"
"18.7766","4137.27","0.156472","227.322","563.3"
"18.8033","4137.69","0.156694","227.345","564.1"
"18.83","4137.86","0.156916","227.355","564.9"
"18.8566","4137.9","0.157138","227.357","565.7"
"18.8833","4138.12","0.15736","227.369","566.5"
"18.9099","4138.72","0.157582","227.402","567.3"
"18.9366","4138.64","0.157805","227.398","568.1"
"18.9633","4138.74","0.158027","227.404","568.9"
"18.99","4139.04","0.158249","227.42","569.7"
"19.0166","4139.41","0.158471","227.44","570.5"
"19.0432","4139.71","0.158693","227.456","571.3"
"19.07","4140.12","0.158916","227.479","572.1"
"19.0967","4140.84","0.159139","227.519","572.9"
"19.1232","4141.05","0.15936","227.53","573.7"
"19.1499","4140.98","0.159582","227.5264","574.5"
"19.1766","4141.04","0.159804","227.53","575.3"
"19.2033","4141.24","0.160027","227.54","576.1"
"19.23","4142.1","0.16025","227.588","576.9"
"19.2566","4142.37","0.160472","227.603","577.7"
"19.2832","4142.16","0.160694","227.591","578.5"
"19.3099","4142.22","0.160916","227.595","579.3"
"19.3366","4143.12","0.161138","227.644","580.1"
"19.3633","4143.16","0.161361","227.646","580.9"
"19.3899","4143.39","0.161583","227.659","581.7"
"19.4166","4143.46","0.161805","227.662","582.5"
"19.4433","4143.67","0.162027","227.674","583.3"
"19.4699","4144","0.162249","227.692","584.1"
"19.4966","4144.19","0.162472","227.703","584.9"
"19.5233","4144.54","0.162694","227.722","585.7"
"19.55","4144.87","0.162916","227.74","586.5"
"19.5766","4144.91","0.163138","227.742","587.3"
"19.6032","4145.49","0.16336","227.774","588.1"
"19.63","4145.84","0.163583","227.794","588.9"
"19.6566","4146.02","0.163805","227.803","589.7"
"19.6833","4146.27","0.164027","227.817","590.5"
"19.7099","4146.55","0.164249","227.833","591.3"
"19.7366","4146.41","0.164471","227.825","592.1"
"19.7633","4146.62","0.164694","227.836","592.9"
"19.79","4147.26","0.164916","227.871","593.7"
"19.8166","4147.68","0.165138","227.895","594.5"
"19.8432","4147.26","0.16536","227.871","595.3"
"19.8699","4147.66","0.165582","227.894","596.1"
"19.8967","4148.21","0.165805","227.924","596.9"
"19.9233","4148.54","0.166028","227.9416","597.7"
"19.9499","4148.62","0.16625","227.946","598.5"
"19.9766","4148.87","0.166472","227.96","599.3"
"20.0033","4148.84","0.166694","227.958","600.1"
"20.03","4149.26","0.166916","227.981","600.9"
"20.0566","4150.04","0.167138","228.024","601.7"
"20.0833","4150.07","0.16736","228.026","602.5"
"20.1099","4149.91","0.167582","228.0168","603.3"
"20.1366","4150.37","0.167804","228.042","604.1"
"20.1633","4150.84","0.168027","228.068","604.9"
"20.1899","4150.87","0.16825","228.07","605.7"
"20.2167","4151.27","0.168472","228.092","606.5"
"20.2433","4151.7","0.168694","228.115","607.3"
"20.2699","4151.52","0.168916","228.106","608.1"
"20.2966","4151.79","0.169138","228.12","608.9"
"20.3233","4152.23","0.169361","228.1444","609.7"
"20.3499","4152.54","0.169583","228.162","610.5"
"20.3766","4152.43","0.169805","228.155","611.3"
"20.4033","4152.64","0.170027","228.167","612.1"
"20.4299","4152.78","0.17025","228.175","612.9"
"20.4566","4153.41","0.170472","228.209","613.7"
"20.4833","4153.62","0.170694","228.221","614.5"
"20.51","4153.94","0.170916","228.239","615.3"
"20.5366","4153.79","0.171138","228.23","616.1"
"20.5633","4154.07","0.17136","228.246","616.9"
"20.59","4154.48","0.171583","228.268","617.7"
"20.6166","4154.53","0.171805","228.271","618.5"
"20.6433","4154.66","0.172027","228.278","619.3"
"20.6699","4154.68","0.172249","228.279","620.1"
"20.6966","4155.3","0.172472","228.313","620.9"
"20.7233","4155.38","0.172694","228.318","621.7"
"20.75","4155.96","0.172916","228.349","622.5"
"20.7766","4156.12","0.173138","228.358","623.3"
"20.8032","4155.8","0.17336","228.341","624.1"
"20.8299","4156.13","0.173582","228.359","624.9"
"20.8566","4156.49","0.173805","228.378","625.7"
"20.8833","4156.59","0.174027","228.384","626.5"
"20.91","4156.75","0.174249","228.393","627.3"
"20.9366","4156.99","0.174471","228.406","628.1"
"20.9633","4157.29","0.174693","228.422","628.9"
"20.9899","4157.2","0.174916","228.417","629.7"
"21.0166","4155.6","0.175138","228.33","630.5"
"21.0433","4155.77","0.175361","228.339","631.3"
"21.0699","4155.93","0.175583","228.348","632.1"
"21.0966","4156.09","0.175805","228.356","632.9"
"21.1233","4156.5","0.176027","228.379","633.7"
"21.15","4157.15","0.176249","228.415","634.5"
"21.1766","4157.89","0.176471","228.456","635.3"
"21.2033","4157.97","0.176693","228.46","636.1"
"21.2299","4157.93","0.176916","228.458","636.9"
"21.2566","4158.31","0.177138","228.479","637.7"
"21.2833","4158.55","0.177361","228.492","638.5"
"21.31","4158.7","0.177583","228.5","639.3"
"21.3366","4158.6","0.177805","228.494","640.1"
"21.3632","4159.08","0.178027","228.521","640.9"
"21.39","4159.34","0.178249","228.535","641.7"
"21.4166","4159.97","0.178472","228.5696","642.5"
"21.4433","4159.88","0.178694","228.565","643.3"
"21.47","4159.8","0.178916","228.56","644.1"
"21.4966","4160.06","0.179138","228.575","644.9"
"21.5232","4160.34","0.17936","228.59","645.7"
"21.55","4160.46","0.179583","228.597","646.5"
"21.5767","4161.11","0.179805","228.632","647.3"
"21.6033","4161.24","0.180027","228.64","648.1"
"21.6299","4161.37","0.180249","228.647","648.9"
"21.6566","4161.5","0.180471","228.654","649.7"
"21.6833","4161.65","0.180693","228.662","650.5"
"21.71","4161.92","0.180916","228.677","651.3"
"21.7366","4162.18","0.181138","228.691","652.1"
"21.7632","4162.26","0.18136","228.696","652.9"
"21.7899","4162.06","0.181582","228.684","653.7"
"21.8166","4162.43","0.181805","228.705","654.5"
"21.8433","4162.91","0.182027","228.732","655.3"
"21.87","4163.13","0.182249","228.744","656.1"
"21.8966","4161.9","0.182471","228.676","656.9"
"21.9233","4157.86","0.182694","228.454","657.7"
"21.9499","4154.79","0.182916","228.285","658.5"
"21.9766","4157.18","0.183138","228.416","659.3"
"22.0033","4158.54","0.18336","228.491","660.1"
"22.0299","4159","0.183582","228.517","660.9"
"22.0566","4159.92","0.183805","228.567","661.7"
"22.0833","4160.42","0.184027","228.594","662.5"
"22.11","4160.77","0.18425","228.614","663.3"
"22.1366","4161.03","0.184471","228.628","664.1"
"22.1633","4161.24","0.184694","228.64","664.9"
"22.1899","4161.6","0.184916","228.66","665.7"
"22.2166","4161.55","0.185138","228.657","666.5"
"22.2433","4161.44","0.185361","228.651","667.3"
"22.27","4161.7","0.185583","228.665","668.1"
"22.2966","4162.08","0.185805","228.686","668.9"
"22.3232","4161.55","0.186027","228.6568","669.7"
"22.3499","4161.4","0.186249","228.648","670.5"
"22.3767","4161.55","0.186472","228.657","671.3"
"22.4033","4159.21","0.186694","228.528","672.1"
"22.4299","4159.41","0.186916","228.539","672.9"
"22.4566","4159.63","0.187138","228.551","673.7"
"22.4832","4159.67","0.18736","228.553","674.5"
"22.51","4159.82","0.187583","228.562","675.3"
"22.5367","4160.51","0.187805","228.599","676.1"
"22.5633","4160.44","0.188027","228.596","676.9"
"22.5899","4160.65","0.188249","228.607","677.7"
"22.6166","4160.95","0.188471","228.624","678.5"
"22.6433","4161.4","0.188694","228.649","679.3"
"22.6699","4161.22","0.188916","228.638","680.1"
"22.6966","4161.34","0.189139","228.645","680.9"
"22.7233","4161.47","0.189361","228.652","681.7"
"22.7499","4161.17","0.189582","228.636","682.5"
"22.7766","4161.85","0.189805","228.673","683.3"
"22.8033","4161.98","0.190027","228.68","684.1"
"22.83","4162.21","0.190249","228.693","684.9"
"22.8566","4162.18","0.190471","228.691","685.7"
"22.8833","4162.35","0.190693","228.701","686.5"
"22.9099","4162.4","0.190916","228.703","687.3"
"22.9366","4162.31","0.191138","228.698","688.1"
"22.9633","4162.95","0.191361","228.733","688.9"
"22.99","4163.13","0.191583","228.743","689.7"
"23.0165","4162.72","0.191805","228.721","690.5"
"23.0433","4163.06","0.192027","228.74","691.3"
"23.07","4163.19","0.19225","228.747","692.1"
"23.0966","4163.55","0.192472","228.766","692.9"
"23.1233","4163.23","0.192693","228.749","693.7"
"23.1499","4162.9","0.192915","228.731","694.5"
"23.1766","4162.42","0.193138","228.704","695.3"
"23.2033","4159.82","0.193361","228.5616","696.1"
"23.23","4152.35","0.193583","228.151","696.9"
"23.2566","4151","0.193805","228.077","697.7"
"23.2832","4144.36","0.194027","227.712","698.5"
"23.3099","4142.86","0.194249","227.63","699.3"
"23.3366","4124.65","0.194472","226.629","700.1"
"23.3633","4091.29","0.194694","224.796","700.9"
"23.3899","3404.65","0.194916","187.068","701.7"
"23.4166","3412.88","0.195138","187.521","702.5"
"23.4433","3421.42","0.19536","187.99","703.3"
"23.4699","3424.95","0.195583","188.184","704.1"
"23.4966","3427.3","0.195805","188.313","704.9"
"23.5234","3429.29","0.196028","188.423","705.7"
"23.55","3429.24","0.196249","188.42","706.5"
"23.5766","3429.52","0.196471","188.435","707.3"
"23.6033","3430.04","0.196694","188.464","708.1"
"23.6299","3430.62","0.196916","188.496","708.9"
"23.6566","3430.73","0.197138","188.502","709.7"
"23.6833","3430.62","0.19736","188.495","710.5"
"23.7099","3429.43","0.197583","188.43","711.3"
"23.7366","3428.65","0.197805","188.388","712.1"
"23.7633","3428.33","0.198027","188.37","712.9"
"23.79","3426.03","0.19825","188.244","713.7"
"23.8166","3425.23","0.198471","188.199","714.5"
"23.8432","3424.64","0.198693","188.1672","715.3"
"23.8699","3424.26","0.198916","188.146","716.1"
"23.8967","3420.78","0.199139","187.955","716.9"
"23.9233","3419.09","0.199361","187.862","717.7"
"23.9499","3418.21","0.199583","187.814","718.5"
"23.9766","3417.91","0.199805","187.797","719.3"
"24.0032","3416.95","0.200027","187.7444","720.1"
"24.03","3416.68","0.200249","187.729","720.9"
"24.0567","3416.2","0.200472","187.703","721.7"
"24.0832","3415.18","0.200694","187.647","722.5"
"24.1099","3414.43","0.200916","187.606","723.3"
"24.1366","3413.48","0.201138","187.554","724.1"
"24.1633","3411.31","0.20136","187.435","724.9"
"24.19","3410.06","0.201583","187.366","725.7"
"24.2167","3409.77","0.201805","187.35","726.5"
"24.2433","3408.99","0.202027","187.307","727.3"
"24.2699","3408.15","0.202249","187.261","728.1"
"24.2966","3407.56","0.202471","187.228","728.9"
"24.3233","3406.85","0.202694","187.189","729.7"
"24.35","3401.85","0.202916","186.915","730.5"
"24.3766","3400.43","0.203138","186.837","731.3"
"24.4033","3399.61","0.20336","186.792","732.1"
"24.4299","3398.86","0.203582","186.751","732.9"
"24.4566","3398.13","0.203805","186.711","733.7"
"24.4833","3396.37","0.204027","186.614","734.5"
"24.5099","3394.27","0.204249","186.498","735.3"
"24.5366","3392.96","0.204471","186.426","736.1"
"24.5633","3392.11","0.204694","186.379","736.9"
"24.59","3391.03","0.204916","186.321","737.7"
"24.6166","3389.08","0.205138","186.213","738.5"
"24.6433","3383.77","0.20536","185.922","739.3"
"24.6699","3381.92","0.205582","185.82","740.1"
"24.6966","3380.43","0.205805","185.738","740.9"
"24.7233","3378.84","0.206027","185.6504","741.7"
"24.75","3377.28","0.20625","185.565","742.5"
"24.7766","3374.72","0.206471","185.424","743.3"
"24.8032","3372.4","0.206693","185.297","744.1"
"24.8299","3365.31","0.206916","184.907","744.9"
"24.8567","3347.2","0.207138","183.912","745.7"
"24.8833","3324.7","0.207361","182.676","746.5"
"24.91","3291.59","0.207583","180.857","747.3"
"24.9366","1938.07","0.207805","106.487","748.1"
"24.9632","1940.37","0.208027","106.614","748.9"
"24.99","1946.88","0.208249","106.971","749.7"
"25.0166","1952.04","0.208472","107.255","750.5"
"25.0433","1955.34","0.208694","107.436","751.3"
"25.0699","1957.51","0.208916","107.556","752.1"
"25.0966","1959.37","0.209138","107.657","752.9"
"25.1233","1961.64","0.20936","107.783","753.7"
"25.1499","1962.61","0.209583","107.836","754.5"
"25.1766","1963.4","0.209805","107.879","755.3"
"25.2033","1963.68","0.210027","107.894","756.1"
"25.2299","1963.54","0.210249","107.887","756.9"
"25.2566","1962.98","0.210471","107.856","757.7"
"25.2833","1962.38","0.210694","107.823","758.5"
"25.3099","1961.88","0.210916","107.796","759.3"
"25.3366","1960.48","0.211138","107.719","760.1"
"25.3633","1958.39","0.21136","107.604","760.9"
"25.3899","1957.24","0.211583","107.541","761.7"
"25.4166","1955.73","0.211805","107.458","762.5"
"25.4433","1944.15","0.212027","106.821","763.3"
"25.47","1940.97","0.212249","106.647","764.1"
"25.4965","1937.58","0.212471","106.461","764.9"
"25.5233","1931.68","0.212694","106.136","765.7"
"25.55","1925.22","0.212916","105.781","766.5"
"25.5767","1904.38","0.213138","104.6364","767.3"
"25.6032","1886.48","0.21336","103.653","768.1"
"25.628","7.76324","0.213566","0.426551","768.831"