File: experimental_data/tensile_specimen_test_data/tensile_test_data/20250312/original_data/without_extensometer/SSS 3 03-12-25 17 51 23 下午/数采：横梁, … - (实时值).csv
"文件路径: C:\Users\Lenovo\Desktop\Wayne\20250312\原始数据\无引伸计\SSS 3 03-12-25 17 51 23 下午\数采：横梁, … - (实时值).csv   "
"试验: MTS EM 拉伸试验-W 3"
"试验运行: SSS 3"
"日期: 2025/3/12 17:07:07"
""
""
"横梁 ","力 ","应变 ","应力 ","时间 "
"mm","N","mm/mm","N/mm²","sec"
"0.00260817","-48.0935","2.17348e-05","-2.6425","0.1"
"0.033161","68.4316","0.000276342","3.75998","1"
"0.0632481","186.062","0.000527068","10.2232","1.9"
"0.0932887","300.996","0.000777018","16.5382","2.8"
"0.12319","412.214","0.00102658","22.6491","3.7"
"0.15323","520.258","0.00127653","28.5856","4.6"
"0.183271","625.82","0.00152725","34.3857","5.5"
"0.213311","727.476","0.0017772","39.9712","6.4"
"0.243212","824.815","0.00202677","45.3195","7.3"
"0.273252","916.239","0.00227672","50.3428","8.2"
"0.303293","1002.4","0.00252705","55.0769","9.1"
"0.333287","1081.64","0.002777","59.4308","10"
"0.363234","1153.9","0.00302656","63.4013","10.9"
"0.393275","1221.13","0.0032769","67.0948","11.8"
"0.423269","1282.82","0.00352685","70.4844","12.7"
"0.453216","1339.96","0.00377641","73.6242","13.6"
"0.483257","1392.35","0.00402675","76.50268","14.5"
"0.513251","1441.63","0.00427709","79.2103","15.4"
"0.543245","1486.8","0.00452665","81.6923","16.3"
"0.573192","1528.58","0.0047766","83.9878","17.2"
"0.603233","1568.02","0.00502694","86.1548","18.1"
"0.63332","1604.41","0.00527728","88.15436","19"
"0.663221","1637.7","0.00552645","89.9834","19.9"
"0.693215","1669.33","0.0057764","91.7214","20.8"
"0.723302","1699.08","0.00602713","93.3562","21.7"
"0.753296","1726.8","0.00627708","94.8792","22.6"
"0.783243","1752.9","0.00652664","96.31332","23.5"
"0.813237","1777.27","0.00677698","97.652","24.4"
"0.843278","1800.48","0.00702731","98.9277","25.3"
"0.873271","1812.01","0.00727687","99.5613","26.2"
"0.903265","1837.37","0.00752682","100.954","27.1"
"0.933259","1857.7","0.00777677","102.071","28"
"0.963253","1875.84","0.00802672","103.068","28.9"
"0.993201","1893.5","0.00827628","104.039","29.8"
"1.02324","1910.55","0.00852662","104.975","30.7"
"1.05328","1926.42","0.00877735","105.847","31.6"
"1.08323","1941.98","0.00902652","106.702","32.5"
"1.11322","1956.66","0.00927647","107.509","33.4"
"1.14326","1970.79","0.00952681","108.285","34.3"
"1.17326","1984.4","0.00977715","109.033","35.2"
"1.20321","1997.33","0.0100267","109.744","36.1"
"1.23325","2010.31","0.0102767","110.457","37"
"1.26329","2022.57","0.010527","111.13","37.9"
"1.29323","2034.13","0.0107769","111.7652","38.8"
"1.32327","2045.49","0.0110269","112.39","39.7"
"1.35327","2056.51","0.0112772","112.995","40.6"
"1.38326","2067.09","0.0115272","113.577","41.5"
"1.41321","2077.38","0.0117767","114.142","42.4"
"1.44325","2087.65","0.0120267","114.706","43.3"
"1.47329","2097.63","0.012277","115.255","44.2"
"1.50324","2093.22","0.0125266","115.012","45.1"
"1.53319","2108.78","0.0127762","115.867","46"
"1.56327","2119.55","0.0130273","116.459","46.9"
"1.59327","2128.73","0.0132772","116.963","47.8"
"1.62321","2137.12","0.0135264","117.424","48.7"
"1.65321","2145.86","0.0137767","117.9042","49.6"
"1.68325","2154.38","0.0140267","118.373","50.5"
"1.71324","2162.15","0.0142766","118.799","51.4"
"1.74324","2170.13","0.0145266","119.238","52.3"
"1.77328","2178.29","0.0147769","119.686","53.2"
"1.80327","2186.25","0.0150273","120.1236","54.1"
"1.83322","2193.3","0.0152768","120.511","55"
"1.86326","2200.71","0.0155268","120.918","55.9"
"1.89335","2208.38","0.0157775","121.339","56.8"
"1.92325","2215.62","0.0160267","121.7374","57.7"
"1.95319","2222.4","0.0162762","122.11","58.6"
"1.98328","2229.27","0.016527","122.487","59.5"
"2.01327","2236.59","0.0167773","122.89","60.4"
"2.04322","2242.74","0.0170265","123.228","61.3"
"2.07322","2249.29","0.0172764","123.587","62.2"
"2.10326","2256.09","0.0175271","123.961","63.1"
"2.13325","2257.75","0.0177771","124.052","64"
"2.16324","2252.53","0.0180267","123.766","64.9"
"2.19324","2267.03","0.0182766","124.562","65.8"
"2.22328","2275.25","0.0185269","125.014","66.7"
"2.25323","2282.02","0.0187765","125.386","67.6"
"2.28322","2288.09","0.0190265","125.719","68.5"
"2.31331","2294.68","0.0192776","126.081","69.4"
"2.3433","2300.81","0.0195271","126.418","70.3"
"2.3732","2306.51","0.0197763","126.731","71.2"
"2.40329","2312.43","0.020027","127.057","72.1"
"2.43333","2308.98","0.0202774","126.867","73"
"2.46328","2319.07","0.0205269","127.421","73.9"
"2.49323","2317.55","0.0207765","127.3378","74.8"
"2.52322","2327.59","0.0210268","127.89","75.7"
"2.55331","2334.78","0.0212772","128.285","76.6"
"2.58325","2340.69","0.0215267","128.609","77.5"
"2.61325","2346.22","0.0217767","128.913","78.4"
"2.64324","2351.65","0.022027","129.212","79.3"
"2.67324","2357.04","0.0222766","129.508","80.2"
"2.70318","2362.56","0.0225265","129.811","81.1"
"2.73327","2368.13","0.0227769","130.117","82"
"2.76326","2372.99","0.0230268","130.384","82.9"
"2.79321","2378.19","0.0232764","130.67","83.8"
"2.82325","2383.31","0.0235267","130.951","84.7"
"2.85329","2388.41","0.0237774","131.231","85.6"
"2.88329","2393.63","0.024027","131.518","86.5"
"2.91323","2398.69","0.0242766","131.796","87.4"
"2.94323","2403.81","0.0245269","132.077","88.3"
"2.97327","2408.73","0.0247772","132.348","89.2"
"3.00326","2413.68","0.0250268","132.62","90.1"
"3.03326","2418.57","0.0252767","132.889","91"
"3.0633","2423.7","0.0255271","133.17","91.9"
"3.09324","2428.03","0.0257766","133.408","92.8"
"3.12319","2432.68","0.0260266","133.664","93.7"
"3.15328","2437.65","0.0262769","133.937","94.6"
"3.18327","2442.17","0.0265269","134.185","95.5"
"3.21317","2446.69","0.0267764","134.434","96.4"
"3.24321","2451.59","0.0270268","134.7028","97.3"
"3.2733","2456.28","0.0272771","134.96","98.2"
"3.3033","2460.61","0.0275271","135.198","99.1"
"3.3332","2464.69","0.0277766","135.423","100"
"3.36324","2468.92","0.028027","135.655","100.9"
"3.39328","2473.73","0.0282773","135.919","101.8"
"3.42322","2478.23","0.0285269","136.167","102.7"
"3.45322","2482.42","0.0287768","136.396","103.6"
"3.48331","2487.15","0.0290272","136.657","104.5"
"3.51325","2491.31","0.0292771","136.885","105.4"
"3.5432","2495.17","0.0295267","137.097","106.3"
"3.57329","2500.15","0.029777","137.371","107.2"
"3.60328","2504.23","0.030027","137.5952","108.1"
"3.63318","2508.21","0.0302765","137.814","109"
"3.66322","2512.27","0.0305265","138.037","109.9"
"3.69326","2516.81","0.0307768","138.286","110.8"
"3.7233","2521.03","0.0310271","138.518","111.7"
"3.7532","2524.81","0.0312763","138.726","112.6"
"3.7832","2528.56","0.0315267","138.932","113.5"
"3.81329","2533.19","0.031777","139.186","114.4"
"3.84328","2537.12","0.0320269","139.402","115.3"
"3.87323","2540.76","0.0322765","139.602","116.2"
"3.90327","2545.05","0.0325268","139.838","117.1"
"3.93331","2549","0.0327772","140.0548","118"
"3.96321","2553.02","0.0330267","140.276","118.9"
"3.9933","2556.96","0.0332771","140.492","119.8"
"4.02329","2560.74","0.033527","140.7","120.7"
"4.05324","2564.38","0.033777","140.9","121.6"
"4.08323","2565.43","0.0340265","140.958","122.5"
"4.11327","2569.37","0.0342769","141.174","123.4"
"4.14331","2573.53","0.0345272","141.403","124.3"
"4.17321","2577.05","0.0347764","141.596","125.2"
"4.20321","2580.83","0.0350263","141.804","126.1"
"4.23329","2584.52","0.0352771","142.006","127"
"4.26329","2586.67","0.035527","142.125","127.9"
"4.29324","2590.78","0.0357766","142.35","128.8"
"4.32323","2594.51","0.0360265","142.556","129.7"
"4.35327","2598.36","0.0362769","142.767","130.6"
"4.38322","2601.62","0.0365264","142.946","131.5"
"4.41326","2605.46","0.0367768","143.157","132.4"
"4.4433","2609.05","0.0370271","143.355","133.3"
"4.47325","2612.36","0.0372767","143.536","134.2"
"4.50324","2615.62","0.037527","143.716","135.1"
"4.53328","2619.45","0.0377769","143.926","136"
"4.56332","2622.87","0.0380273","144.114","136.9"
"4.59322","2625.73","0.0382768","144.271","137.8"
"4.62322","2628.97","0.0385264","144.449","138.7"
"4.65326","2632.7","0.0387767","144.654","139.6"
"4.68325","2635.91","0.0390271","144.83","140.5"
"4.71324","2639.04","0.0392766","145.002","141.4"
"4.74324","2642.27","0.039527","145.18","142.3"
"4.77328","2645.47","0.0397769","145.355","143.2"
"4.80323","2648.07","0.0400265","145.498","144.1"
"4.83327","2651.29","0.0402768","145.675","145"
"4.86326","2654.67","0.0405268","145.861","145.9"
"4.89325","2657.73","0.0407767","146.029","146.8"
"4.9232","2660.45","0.0410267","146.1784","147.7"
"4.95324","2663.82","0.0412766","146.364","148.6"
"4.98333","2667.21","0.0415274","146.55","149.5"
"5.01323","2669.58","0.0417769","146.68","150.4"
"5.04322","2672.65","0.0420265","146.8488","151.3"
"5.07331","2675.96","0.0422772","147.031","152.2"
"5.10331","2678.69","0.0425272","147.181","153.1"
"5.13325","2681.18","0.0427767","147.317","154"
"5.16325","2684.25","0.0430267","147.486","154.9"
"5.19324","2687.37","0.043277","147.658","155.8"
"5.22323","2689.82","0.0435266","147.792","156.7"
"5.25323","2692.56","0.0437769","147.943","157.6"
"5.28327","2695.5","0.0440269","148.104","158.5"
"5.31326","2686.14","0.0442768","147.59","159.4"
"5.34321","2694.88","0.0445264","148.07","160.3"
"5.3732","2698.78","0.0447767","148.284","161.2"
"5.40329","2703.06","0.045027","148.52","162.1"
"5.43324","2705.59","0.0452766","148.659","163"
"5.46319","2707.9","0.0455262","148.786","163.9"
"5.49327","2710.92","0.0457773","148.952","164.8"
"5.52331","2713.98","0.0460272","149.12","165.7"
"5.55326","2716.31","0.0462768","149.248","166.6"
"5.58326","2718.95","0.0465267","149.393","167.5"
"5.6133","2721.73","0.0467771","149.546","168.4"
"5.64324","2724.13","0.047027","149.677","169.3"
"5.67324","2726.38","0.0472766","149.801","170.2"
"5.70323","2729.27","0.0475269","149.96","171.1"
"5.73327","2731.77","0.0477773","150.097","172"
"5.76322","2733.63","0.0480268","150.2","172.9"
"5.79321","2735.98","0.0482764","150.329","173.8"
"5.8233","2738.85","0.0485271","150.486","174.7"
"5.85325","2740.88","0.0487767","150.598","175.6"
"5.88319","2743.19","0.0490262","150.725","176.5"
"5.91324","2745.73","0.049277","150.865","177.4"
"5.94328","2748.11","0.0495269","150.995","178.3"
"5.97327","2750.32","0.0497769","151.116","179.2"
"6.00322","2752.44","0.0500264","151.2332","180.1"
"6.03326","2754.75","0.0502768","151.36","181"
"6.0633","2757.1","0.0505271","151.489","181.9"
"6.09325","2759.3","0.0507767","151.61","182.8"
"6.12324","2761.7","0.051027","151.742","183.7"
"6.15328","2763.81","0.0512769","151.858","184.6"
"6.18327","2765.78","0.0515269","151.966","185.5"
"6.21322","2767.81","0.0517765","152.077","186.4"
"6.24326","2770.32","0.0520272","152.215","187.3"
"6.27326","2772.27","0.0522767","152.322","188.2"
"6.3032","2774.1","0.0525263","152.423","189.1"
"6.33324","2776.31","0.0527766","152.544","190"
"6.36328","2778.2","0.053027","152.648","190.9"
"6.39323","2780.3","0.0532769","152.764","191.8"
"6.42323","2782.26","0.0535265","152.872","192.7"
"6.45327","2784.4","0.0537768","152.989","193.6"
"6.48326","2786.39","0.0540268","153.098","194.5"
"6.51325","2788.15","0.0542767","153.195","195.4"
"6.54325","2731.3","0.0545267","150.072","196.3"
"6.57329","2757.77","0.054777","151.526","197.2"
"6.60324","2773.47","0.055027","152.389","198.1"
"6.63323","2781.36","0.0552765","152.822","199"
"6.66332","2786.92","0.0555273","153.128","199.9"
"6.69326","2790.17","0.0557772","153.306","200.8"
"6.72321","2792.22","0.0560264","153.419","201.7"
"6.75325","2794.72","0.0562767","153.556","202.6"
"6.78329","2797.15","0.0565271","153.69","203.5"
"6.81324","2798.2","0.056777","153.747","204.4"
"6.84319","2800.31","0.0570262","153.863","205.3"
"6.87323","2802.51","0.0572765","153.984","206.2"
"6.90327","2804.91","0.0575272","154.116","207.1"
"6.93322","2806.36","0.0577768","154.196","208"
"6.96321","2808.02","0.0580268","154.287","208.9"
"6.99325","2810.24","0.0582771","154.409","209.8"
"7.02325","2811.86","0.0585267","154.498","210.7"
"7.05319","2813.44","0.0587762","154.584","211.6"
"7.08328","2815.42","0.0590269","154.693","212.5"
"7.11327","2817.56","0.0592773","154.811","213.4"
"7.14322","2818.9","0.0595265","154.8844","214.3"
"7.17326","2820.63","0.0597768","154.98","215.2"
"7.2033","2822.625","0.0600275","155.089","216.1"
"7.2333","2824.3","0.0602775","155.181","217"
"7.2632","2825.57","0.0605266","155.251","217.9"
"7.29319","2827.64","0.0607766","155.365","218.8"
"7.32328","2829.22","0.0610269","155.451","219.7"
"7.35327","2830.9","0.0612769","155.544","220.6"
"7.38322","2832.44","0.0615264","155.629","221.5"
"7.41326","2834.05","0.0617768","155.717","222.4"
"7.44325","2835.49","0.0620271","155.796","223.3"
"7.4732","2836.95","0.0622767","155.877","224.2"
"7.50324","2838.62","0.062527","155.968","225.1"
"7.53328","2840.47","0.062777","156.07","226"
"7.56323","2842.06","0.0630265","156.157","226.9"
"7.59322","2843.29","0.0632765","156.225","227.8"
"7.62326","2845.15","0.0635268","156.327","228.7"
"7.6533","2846.56","0.0637775","156.405","229.6"
"7.68325","2847.86","0.0640267","156.476","230.5"
"7.71325","2849.63","0.0642767","156.573","231.4"
"7.74329","2851.1","0.0645274","156.654","232.3"
"7.77328","2852.25","0.0647769","156.717","233.2"
"7.80323","2853.92","0.0650265","156.809","234.1"
"7.83322","2855.3","0.0652769","156.885","235"
"7.86326","2856.84","0.0655268","156.969","235.9"
"7.89321","2858.06","0.0657768","157.036","236.8"
"7.92325","2859.64","0.0660271","157.123","237.7"
"7.95329","2860.87","0.066277","157.191","238.6"
"7.98324","2862.1","0.0665266","157.258","239.5"
"8.01323","2863.47","0.0667766","157.334","240.4"
"8.04323","2865.26","0.0670269","157.432","241.3"
"8.07327","2866.5","0.0672772","157.5","242.2"
"8.10321","2867.6","0.0675264","157.561","243.1"
"8.13321","2869.1","0.0677767","157.643","244"
"8.1633","2870.57","0.0680271","157.723","244.9"
"8.19329","2871.87","0.068277","157.795","245.8"
"8.22324","2873","0.0685266","157.857","246.7"
"8.25328","2874.73","0.0687769","157.952","247.6"
"8.28327","2876.05","0.0690269","158.025","248.5"
"8.31322","2876.94","0.0692764","158.074","249.4"
"8.34326","2878.31","0.0695268","158.149","250.3"
"8.37325","2879.92","0.0697771","158.237","251.2"
"8.40325","2880.94","0.0700267","158.293","252.1"
"8.43324","2882","0.0702766","158.352","253"
"8.46323","2883.6","0.0705266","158.439","253.9"
"8.49332","2884.76","0.0707773","158.503","254.8"
"8.52322","2885.56","0.0710265","158.547","255.7"
"8.55317","2886.98","0.071276","158.625","256.6"
"8.58326","2888.6","0.0715271","158.714","257.5"
"8.61325","2889.52","0.0717771","158.765","258.4"
"8.64325","2890.87","0.0720267","158.839","259.3"
"8.67324","2891.81","0.072277","158.891","260.2"
"8.70328","2893.02","0.0725269","158.957","261.1"
"8.73323","2893.99","0.0727769","159.01","262"
"8.76327","2895.34","0.0730268","159.084","262.9"
"8.79326","2896.53","0.0732772","159.15","263.8"
"8.82326","2897.54","0.0735271","159.205","264.7"
"8.8532","2898.56","0.0737767","159.262","265.6"
"8.88324","2899.5","0.0740266","159.313","266.5"
"8.91333","2900.69","0.0742774","159.379","267.4"
"8.94328","2901.97","0.0745269","159.449","268.3"
"8.97318","2902.53","0.0747761","159.48","269.2"
"9.00327","2903.99","0.0750268","159.56","270.1"
"9.03331","2905.13","0.0752772","159.623","271"
"9.06321","2906.26","0.0755267","159.6844","271.9"
"9.0932","2907.11","0.0757767","159.732","272.8"
"9.12324","2908.34","0.076027","159.799","273.7"
"9.15324","2909.38","0.076277","159.856","274.6"
"9.18323","2910.62","0.0765269","159.924","275.5"
"9.21327","2911.51","0.0767769","159.973","276.4"
"9.24326","2912.76","0.0770272","160.042","277.3"
"9.27326","2913.79","0.0772768","160.099","278.2"
"9.30325","2914.81","0.0775267","160.154","279.1"
"9.33334","2916.14","0.0777774","160.227","280"
"9.36329","2916.74","0.078027","160.261","280.9"
"9.39319","2917.75","0.0782766","160.316","281.8"
"9.42327","2918.71","0.0785269","160.369","282.7"
"9.45327","2919.72","0.0787772","160.424","283.6"
"9.48322","2920.66","0.0790268","160.476","284.5"
"9.51321","2921.67","0.0792764","160.532","285.4"
"9.54325","2922.83","0.0795267","160.595","286.3"
"9.57324","2923.62","0.0797767","160.638","287.2"
"9.60324","2924.65","0.0800266","160.695","288.1"
"9.63323","2925.53","0.0802769","160.744","289"
"9.66327","2926.67","0.0805269","160.806","289.9"
"9.69322","2927.08","0.0807764","160.829","290.8"
"9.72321","2928.36","0.0810264","160.899","291.7"
"9.7533","2929.74","0.0812771","160.975","292.6"
"9.78325","2930.21","0.0815271","161.001","293.5"
"9.8132","2931.23","0.0817762","161.057","294.4"
"9.84328","2932.11","0.082027","161.105","295.3"
"9.87332","2933.33","0.0822773","161.172","296.2"
"9.90327","2934.04","0.0825269","161.211","297.1"
"9.93322","2934.85","0.0827764","161.256","298"
"9.96326","2935.93","0.0830268","161.315","298.9"
"9.99325","2936.66","0.0832767","161.355","299.8"
"10.0232","2937.37","0.0835267","161.394","300.7"
"10.0532","2938.34","0.0837766","161.447","301.6"
"10.0833","2939.7","0.084027","161.522","302.5"
"10.1132","2940.44","0.0842769","161.562","303.4"
"10.1432","2940.91","0.0845265","161.588","304.3"
"10.1733","2942.14","0.0847772","161.656","305.2"
"10.2033","2943.02","0.0850268","161.705","306.1"
"10.2332","2943.43","0.0852763","161.727","307"
"10.2632","2944.49","0.0855267","161.785","307.9"
"10.2933","2945.66","0.085777","161.849","308.8"
"10.3233","2946.49","0.0860269","161.895","309.7"
"10.3532","2946.97","0.0862765","161.922","310.6"
"10.3833","2948.02","0.0865268","161.979","311.5"
"10.4133","2949.11","0.0867772","162.039","312.4"
"10.4433","2949.52","0.0870267","162.061","313.3"
"10.4732","2950.2","0.0872767","162.099","314.2"
"10.5032","2951.24","0.087527","162.156","315.1"
"10.5332","2952.13","0.0877766","162.2048","316"
"10.5632","2952.7","0.0880265","162.236","316.9"
"10.5933","2954.21","0.0882773","162.319","317.8"
"10.6233","2954.75","0.0885272","162.349","318.7"
"10.6532","2955.02","0.0887764","162.364","319.6"
"10.6832","2956.17","0.0890267","162.427","320.5"
"10.7132","2956.98","0.0892771","162.472","321.4"
"10.7433","2958.06","0.089527","162.531","322.3"
"10.7732","2958.71","0.0897766","162.567","323.2"
"10.8032","2959.48","0.0900265","162.609","324.1"
"10.8333","2960.19","0.0902773","162.648","325"
"10.8633","2961","0.0905272","162.692","325.9"
"10.8933","2961.72","0.0907768","162.732","326.8"
"10.9233","2962.44","0.0910271","162.772","327.7"
"10.9533","2963.12","0.0912771","162.809","328.6"
"10.9832","2963.94","0.0915266","162.854","329.5"
"11.0133","2964.96","0.091777","162.91","330.4"
"11.0433","2965.63","0.0920269","162.947","331.3"
"11.0732","2966.37","0.0922765","162.9876","332.2"
"11.1032","2967.01","0.0925268","163.023","333.1"
"11.1333","2967.98","0.0927768","163.076","334"
"11.1633","2968.49","0.0930271","163.104","334.9"
"11.1932","2969.22","0.0932763","163.144","335.8"
"11.2232","2969.95","0.0935266","163.184","336.7"
"11.2533","2970.91","0.0937769","163.237","337.6"
"11.2833","2971.6","0.0940269","163.275","338.5"
"11.3132","2972.38","0.0942768","163.317","339.4"
"11.3433","2973.21","0.0945272","163.363","340.3"
"11.3733","2973.81","0.0947771","163.396","341.2"
"11.4032","2974.44","0.0950267","163.431","342.1"
"11.4333","2975.47","0.095277","163.488","343"
"11.4633","2976.13","0.095527","163.524","343.9"
"11.4932","2976.52","0.0957765","163.545","344.8"
"11.5232","2977.45","0.0960265","163.596","345.7"
"11.5533","2978.34","0.0962768","163.645","346.6"
"11.5833","2979.12","0.0965272","163.688","347.5"
"11.6132","2979.1","0.0967767","163.687","348.4"
"11.6432","2979.94","0.0970267","163.733","349.3"
"11.6733","2980.7","0.097277","163.775","350.2"
"11.7032","2981.65","0.097527","163.827","351.1"
"11.7332","2982.09","0.0977765","163.851","352"
"11.7633","2983.07","0.0980269","163.905","352.9"
"11.7933","2983.74","0.0982768","163.942","353.8"
"11.8232","2984.11","0.0985264","163.962","354.7"
"11.8533","2984.7","0.0987771","163.994","355.6"
"11.8833","2985.47","0.099027","164.037","356.5"
"11.9132","2986.13","0.0992766","164.073","357.4"
"11.9432","2986.58","0.0995266","164.098","358.3"
"11.9733","2987.38","0.0997769","164.142","359.2"
"12.0033","2986.85","0.100028","164.112","360.1"
"12.0332","2987.65","0.100277","164.156","361"
"12.0632","2988.28","0.100526","164.191","361.9"
"12.0933","2989.2","0.100777","164.242","362.8"
"12.1233","2989.73","0.101027","164.271","363.7"
"12.1532","2990.7","0.101277","164.324","364.6"
"12.1832","2991.48","0.101527","164.367","365.5"
"12.2133","2992.06","0.101777","164.399","366.4"
"12.2432","2992.78","0.102026","164.438","367.3"
"12.2732","2993.19","0.102277","164.461","368.2"
"12.3033","2993.79","0.102527","164.494","369.1"
"12.3332","2994.51","0.102777","164.534","370"
"12.3632","2994.92","0.103027","164.556","370.9"
"12.3932","2995.29","0.103277","164.577","371.8"
"12.4233","2996.29","0.103527","164.631","372.7"
"12.4533","2996.89","0.103777","164.664","373.6"
"12.4832","2997.35","0.104026","164.69","374.5"
"12.5133","2998.34","0.104277","164.744","375.4"
"12.5433","2998.84","0.104527","164.772","376.3"
"12.5732","2999.09","0.104777","164.785","377.2"
"12.6032","2999.77","0.105027","164.823","378.1"
"12.6332","3000.01","0.105277","164.836","379"
"12.6632","3000.93","0.105527","164.886","379.9"
"12.6932","3001.71","0.105777","164.9292","380.8"
"12.7233","3002.2","0.106027","164.956","381.7"
"12.7533","3002.95","0.106277","164.997","382.6"
"12.7833","3003.28","0.106527","165.016","383.5"
"12.8132","3003.71","0.106777","165.039","384.4"
"12.8433","3004.69","0.107027","165.093","385.3"
"12.8732","3004.99","0.107277","165.109","386.2"
"12.9032","3005.4","0.107527","165.132","387.1"
"12.9333","3006.06","0.107777","165.168","388"
"12.9633","3006.92","0.108027","165.215","388.9"
"12.9933","3007.17","0.108277","165.229","389.8"
"13.0232","3007.69","0.108527","165.257","390.7"
"13.0533","3008.32","0.108777","165.292","391.6"
"13.0833","3008.71","0.109027","165.313","392.5"
"13.1132","3009.14","0.109277","165.338","393.4"
"13.1433","3009.9","0.109527","165.379","394.3"
"13.1733","3010.45","0.109777","165.409","395.2"
"13.2032","3010.82","0.110026","165.43","396.1"
"13.2332","3011.27","0.110277","165.454","397"
"13.2633","3012.15","0.110527","165.503","397.9"
"13.2932","3012.54","0.110777","165.524","398.8"
"13.3232","3012.68","0.111026","165.532","399.7"
"13.3533","3013.81","0.111277","165.594","400.6"
"13.3833","3014.28","0.111527","165.62","401.5"
"13.4132","3014.64","0.111777","165.639","402.4"
"13.4432","3015.14","0.112026","165.667","403.3"
"13.4733","3015.74","0.112277","165.7","404.2"
"13.5033","3016.46","0.112527","165.74","405.1"
"13.5333","3016.74","0.112777","165.755","406"
"13.5633","3017.3","0.113027","165.786","406.9"
"13.5933","3018.24","0.113277","165.837","407.8"
"13.6232","3018.56","0.113527","165.855","408.7"
"13.6532","3018.73","0.113776","165.864","409.6"
"13.6833","3019.66","0.114027","165.915","410.5"
"13.7132","3019.98","0.114277","165.933","411.4"
"13.7432","3020.23","0.114526","165.947","412.3"
"13.7733","3021.04","0.114777","165.991","413.2"
"13.8033","3021.4","0.115027","166.011","414.1"
"13.8333","3022.01","0.115277","166.045","415"
"13.8632","3022.15","0.115526","166.052","415.9"
"13.8932","3022.91","0.115777","166.094","416.8"
"13.9233","3023.54","0.116027","166.129","417.7"
"13.9532","3024","0.116277","166.154","418.6"
"13.9832","3024.61","0.116527","166.187","419.5"
"14.0133","3025.1","0.116777","166.215","420.4"
"14.0433","3025.48","0.117027","166.235","421.3"
"14.0732","3025.66","0.117276","166.245","422.2"
"14.1033","3026.44","0.117527","166.288","423.1"
"14.1333","3027.08","0.117777","166.323","424"
"14.1632","3027.15","0.118026","166.327","424.9"
"14.1932","3027.65","0.118277","166.354","425.8"
"14.2233","3028.42","0.118527","166.397","426.7"
"14.2533","3028.73","0.118777","166.414","427.6"
"14.2832","3029.18","0.119027","166.438","428.5"
"14.3132","3029.6","0.119276","166.461","429.4"
"14.3433","3030.16","0.119527","166.492","430.3"
"14.3733","3030.43","0.119777","166.507","431.2"
"14.4032","3030.78","0.120026","166.526","432.1"
"14.4332","3031.25","0.120277","166.552","433"
"14.4632","3031.58","0.120527","166.57","433.9"
"14.4932","3032.18","0.120777","166.603","434.8"
"14.5233","3032.64","0.121027","166.629","435.7"
"14.5533","3031.98","0.121277","166.592","436.6"
"14.5832","3032.28","0.121526","166.609","437.5"
"14.6133","3033.24","0.121777","166.661","438.4"
"14.6433","3033.66","0.122027","166.6848","439.3"
"14.6733","3034.32","0.122277","166.721","440.2"
"14.7032","3034.53","0.122527","166.733","441.1"
"14.7332","3034.92","0.122777","166.754","442"
"14.7633","3035.45","0.123027","166.783","442.9"
"14.7933","3035.58","0.123277","166.79","443.8"
"14.8232","3036.26","0.123527","166.828","444.7"
"14.8533","3037.04","0.123777","166.87","445.6"
"14.8832","3037.25","0.124027","166.882","446.5"
"14.9132","3037.52","0.124276","166.897","447.4"
"14.9433","3038.37","0.124527","166.944","448.3"
"14.9733","3038.65","0.124777","166.959","449.2"
"15.0032","3039.13","0.125026","166.985","450.1"
"15.0332","3039.56","0.125277","167.009","451"
"15.0633","3040.24","0.125527","167.046","451.9"
"15.0933","3040.34","0.125777","167.052","452.8"
"15.1232","3040.67","0.126027","167.07","453.7"
"15.1532","3041.11","0.126277","167.094","454.6"
"15.1833","3041.85","0.126527","167.135","455.5"
"15.2133","3042.42","0.126777","167.166","456.4"
"15.2432","3042.47","0.127026","167.169","457.3"
"15.2733","3042.92","0.127277","167.194","458.2"
"15.3033","3043.26","0.127527","167.212","459.1"
"15.3332","3043.37","0.127776","167.218","460"
"15.3632","3043.98","0.128027","167.251","460.9"
"15.3933","3044.37","0.128277","167.273","461.8"
"15.4232","3044.76","0.128527","167.294","462.7"
"15.4532","3045.01","0.128776","167.308","463.6"
"15.4833","3045.39","0.129027","167.329","464.5"
"15.5133","3045.96","0.129277","167.361","465.4"
"15.5432","3046.22","0.129527","167.375","466.3"
"15.5732","3046.49","0.129776","167.389","467.2"
"15.6033","3047.07","0.130027","167.422","468.1"
"15.6333","3047.55","0.130277","167.448","469"
"15.6632","3047.72","0.130527","167.457","469.9"
"15.6933","3048.1","0.130777","167.478","470.8"
"15.7233","3048.79","0.131027","167.516","471.7"
"15.7533","3049.2","0.131277","167.538","472.6"
"15.7833","3049.59","0.131527","167.56","473.5"
"15.8132","3049.81","0.131777","167.572","474.4"
"15.8432","3050.26","0.132027","167.597","475.3"
"15.8732","3050.42","0.132277","167.605","476.2"
"15.9032","3050.88","0.132527","167.631","477.1"
"15.9333","3051.57","0.132777","167.669","478"
"15.9632","3051.73","0.133027","167.677","478.9"
"15.9932","3051.91","0.133276","167.687","479.8"
"16.0233","3052.47","0.133527","167.718","480.7"
"16.0533","3052.9","0.133777","167.742","481.6"
"16.0832","3053.2","0.134027","167.758","482.5"
"16.1132","3053.58","0.134277","167.779","483.4"
"16.1433","3054.02","0.134527","167.803","484.3"
"16.1733","3054.17","0.134777","167.811","485.2"
"16.2033","3054.83","0.135027","167.848","486.1"
"16.2333","3055.23","0.135277","167.87","487"
"16.2633","3055.27","0.135527","167.872","487.9"
"16.2932","3055.66","0.135777","167.893","488.8"
"16.3232","3056.39","0.136027","167.933","489.7"
"16.3533","3056.69","0.136277","167.95","490.6"
"16.3832","3056.8","0.136526","167.956","491.5"
"16.4132","3057.18","0.136776","167.977","492.4"
"16.4433","3057.98","0.137027","168.021","493.3"
"16.4733","3058.22","0.137277","168.034","494.2"
"16.5032","3058.19","0.137527","168.032","495.1"
"16.5332","3058.4","0.137777","168.044","496"
"16.5632","3059.1","0.138027","168.082","496.9"
"16.5932","3059.1","0.138277","168.082","497.8"
"16.6232","3059.34","0.138526","168.096","498.7"
"16.6533","3058.98","0.138777","168.076","499.6"
"16.6833","3059.38","0.139027","168.098","500.5"
"16.7133","3059.48","0.139277","168.103","501.4"
"16.7432","3059.9","0.139527","168.126","502.3"
"16.7733","3060.46","0.139777","168.157","503.2"
"16.8033","3060.24","0.140027","168.145","504.1"
"16.8332","3059.9","0.140276","168.127","505"
"16.8633","3060.64","0.140527","168.167","505.9"
"16.8933","3061.16","0.140777","168.195","506.8"
"16.9233","3061.45","0.141027","168.211","507.7"
"16.9532","3061.77","0.141277","168.229","508.6"
"16.9833","3062.39","0.141527","168.263","509.5"
"17.0132","3062.73","0.141777","168.282","510.4"
"17.0432","3062.76","0.142027","168.283","511.3"
"17.0732","3063.35","0.142276","168.316","512.2"
"17.1033","3063.6","0.142527","168.33","513.1"
"17.1332","3063.83","0.142777","168.342","514"
"17.1632","3064.27","0.143026","168.367","514.9"
"17.1933","3064.81","0.143277","168.396","515.8"
"17.2233","3065.24","0.143527","168.42","516.7"
"17.2532","3065.14","0.143777","168.414","517.6"
"17.2833","3065.65","0.144027","168.442","518.5"
"17.3133","3066.14","0.144277","168.469","519.4"
"17.3433","3066.73","0.144527","168.502","520.3"
"17.3732","3066.72","0.144776","168.501","521.2"
"17.4033","3067.24","0.145027","168.53","522.1"
"17.4333","3067.34","0.145277","168.535","523"
"17.4632","3067.91","0.145527","168.567","523.9"
"17.4932","3068.25","0.145777","168.585","524.8"
"17.5233","3068.59","0.146027","168.604","525.7"
"17.5532","3068.78","0.146276","168.614","526.6"
"17.5832","3068.98","0.146526","168.625","527.5"
"17.6133","3069.71","0.146777","168.665","528.4"
"17.6433","3069.91","0.147027","168.676","529.3"
"17.6732","3070.26","0.147276","168.696","530.2"
"17.7032","3070.79","0.147527","168.725","531.1"
"17.7333","3070.87","0.147777","168.729","532"
"17.7633","3071.21","0.148027","168.748","532.9"
"17.7932","3071.75","0.148276","168.777","533.8"
"17.8233","3072.33","0.148527","168.809","534.7"
"17.8533","3072.49","0.148777","168.818","535.6"
"17.8833","3072.68","0.149027","168.828","536.5"
"17.9132","3073.06","0.149277","168.85","537.4"
"17.9433","3073.24","0.149527","168.86","538.3"
"17.9732","3073.33","0.149777","168.864","539.2"
"18.0032","3073.73","0.150026","168.886","540.1"
"18.0333","3074.64","0.150277","168.936","541"
"18.0633","3074.47","0.150527","168.927","541.9"
"18.0932","3074.66","0.150776","168.937","542.8"
"18.1232","3074.77","0.151027","168.944","543.7"
"18.1533","3075.46","0.151277","168.981","544.6"
"18.1833","3075.43","0.151527","168.98","545.5"
"18.2132","3075.97","0.151777","169.009","546.4"
"18.2432","3076.53","0.152027","169.04","547.3"
"18.2733","3077.14","0.152277","169.074","548.2"
"18.3033","3077.02","0.152527","169.067","549.1"
"18.3333","3077.38","0.152777","169.087","550"
"18.3633","3077.89","0.153027","169.115","550.9"
"18.3933","3078.01","0.153277","169.122","551.8"
"18.4232","3077.74","0.153527","169.107","552.7"
"18.4533","3077.32","0.153777","169.083","553.6"
"18.4833","3077.14","0.154027","169.074","554.5"
"18.5132","3077.41","0.154276","169.088","555.4"
"18.5432","3077.93","0.154526","169.117","556.3"
"18.5733","3078.37","0.154777","169.141","557.2"
"18.6033","3078.81","0.155027","169.165","558.1"
"18.6332","3078.73","0.155277","169.161","559"
"18.6632","3079.15","0.155527","169.184","559.9"
"18.6933","3079.71","0.155777","169.215","560.8"
"18.7233","3080","0.156027","169.2308","561.7"
"18.7532","3080.24","0.156276","169.244","562.6"
"18.7833","3080.9","0.156527","169.28","563.5"
"18.8133","3081.17","0.156777","169.295","564.4"
"18.8432","3081.22","0.157027","169.298","565.3"
"18.8733","3081.6","0.157277","169.318","566.2"
"18.9033","3081.89","0.157527","169.335","567.1"
"18.9333","3081.96","0.157777","169.339","568"
"18.9632","3082.4","0.158026","169.363","568.9"
"18.9933","3082.72","0.158277","169.38","569.8"
"19.0233","3083.11","0.158527","169.401","570.7"
"19.0532","3083.29","0.158777","169.411","571.6"
"19.0832","3083.48","0.159026","169.422","572.5"
"19.1133","3084","0.159277","169.451","573.4"
"19.1433","3083.96","0.159527","169.448","574.3"
"19.1732","3084.18","0.159776","169.46","575.2"
"19.2032","3084.47","0.160027","169.477","576.1"
"19.2333","3084.55","0.160277","169.481","577"
"19.2632","3084.93","0.160527","169.502","577.9"
"19.2932","3085.48","0.160777","169.532","578.8"
"19.3233","3085.86","0.161027","169.552","579.7"
"19.3533","3085.89","0.161277","169.554","580.6"
"19.3832","3086.15","0.161527","169.569","581.5"
"19.4133","3086.26","0.161777","169.575","582.4"
"19.4433","3086.73","0.162027","169.601","583.3"
"19.4733","3087.04","0.162277","169.618","584.2"
"19.5032","3087.4","0.162526","169.6372","585.1"
"19.5332","3087.66","0.162777","169.652","586"
"19.5633","3087.54","0.163027","169.645","586.9"
"19.5932","3087.76","0.163277","169.657","587.8"
"19.6233","3088.45","0.163527","169.695","588.7"
"19.6533","3088.54","0.163777","169.7","589.6"
"19.6832","3088.56","0.164026","169.701","590.5"
"19.7133","3089.12","0.164277","169.732","591.4"
"19.7432","3089.5","0.164527","169.753","592.3"
"19.7732","3089.45","0.164777","169.75","593.2"
"19.8032","3089.57","0.165027","169.756","594.1"
"19.8332","3090.31","0.165277","169.797","595"
"19.8633","3090.73","0.165527","169.8204","595.9"
"19.8933","3090.69","0.165777","169.818","596.8"
"19.9232","3090.62","0.166026","169.814","597.7"
"19.9533","3091.37","0.166277","169.855","598.6"
"19.9833","3091.53","0.166527","169.864","599.5"
"20.0132","3091.57","0.166777","169.867","600.4"
"20.0432","3092.11","0.167027","169.896","601.3"
"20.0733","3092.53","0.167277","169.919","602.2"
"20.1032","3092.77","0.167527","169.932","603.1"
"20.1333","3092.48","0.167777","169.917","604"
"20.1633","3092.75","0.168027","169.931","604.9"
"20.1933","3093.36","0.168277","169.965","605.8"
"20.2232","3093.56","0.168526","169.976","606.7"
"20.2532","3093.68","0.168777","169.982","607.6"
"20.2833","3094.44","0.169027","170.024","608.5"
"20.3132","3094.39","0.169277","170.022","609.4"
"20.3432","3094.52","0.169526","170.029","610.3"
"20.3733","3094.76","0.169777","170.042","611.2"
"20.4033","3095.11","0.170028","170.061","612.1"
"20.4332","3095.39","0.170277","170.077","613"
"20.4632","3095.3","0.170527","170.071","613.9"
"20.4933","3095.84","0.170777","170.101","614.8"
"20.5233","3096.26","0.171027","170.124","615.7"
"20.5532","3096.57","0.171277","170.141","616.6"
"20.5833","3096.92","0.171527","170.161","617.5"
"20.6133","3097.25","0.171777","170.179","618.4"
"20.6433","3097.6","0.172027","170.198","619.3"
"20.6732","3097.78","0.172276","170.208","620.2"
"20.7033","3098.31","0.172527","170.237","621.1"
"20.7332","3098.56","0.172777","170.251","622"
"20.7632","3098.64","0.173026","170.255","622.9"
"20.7933","3098.98","0.173277","170.274","623.8"
"20.8233","3099.14","0.173527","170.283","624.7"
"20.8533","3099.47","0.173777","170.301","625.6"
"20.8832","3099.65","0.174027","170.311","626.5"
"20.9132","3100.05","0.174277","170.332","627.4"
"20.9433","3100.29","0.174527","170.346","628.3"
"20.9732","3100.42","0.174777","170.353","629.2"
"21.0032","3101","0.175027","170.384","630.1"
"21.0333","3101.29","0.175277","170.4","631"
"21.0633","3101.2","0.175527","170.395","631.9"
"21.0933","3101.56","0.175777","170.416","632.8"
"21.1233","3102.15","0.176027","170.448","633.7"
"21.1532","3102.01","0.176277","170.44","634.6"
"21.1832","3102.21","0.176526","170.451","635.5"
"21.2132","3102.68","0.176777","170.477","636.4"
"21.2433","3103.18","0.177027","170.504","637.3"
"21.2733","3103.35","0.177277","170.514","638.2"
"21.3032","3103.41","0.177526","170.517","639.1"
"21.3333","3103.75","0.177777","170.536","640"
"21.3632","3103.99","0.178027","170.549","640.9"
"21.3932","3103.93","0.178277","170.546","641.8"
"21.4232","3104.18","0.178527","170.559","642.7"
"21.4533","3104.79","0.178777","170.593","643.6"
"21.4833","3104.79","0.179027","170.593","644.5"
"21.5132","3105.01","0.179276","170.605","645.4"
"21.5433","3105.74","0.179528","170.645","646.3"
"21.5733","3105.71","0.179777","170.643","647.2"
"21.6032","3104.29","0.180026","170.565","648.1"
"21.6332","3103.97","0.180277","170.548","649"
"21.6633","3104.72","0.180527","170.589","649.9"
"21.6933","3101.51","0.180777","170.413","650.8"
"21.7232","3103.15","0.181026","170.502","651.7"
"21.7532","3104.27","0.181277","170.564","652.6"
"21.7833","3105.01","0.181527","170.605","653.5"
"21.8133","3105.16","0.181777","170.613","654.4"
"21.8432","3105.36","0.182027","170.624","655.3"
"21.8733","3105.59","0.182277","170.637","656.2"
"21.9032","3105.75","0.182527","170.6456","657.1"
"21.9332","3105.74","0.182776","170.645","658"
"21.9633","3106.57","0.183027","170.691","658.9"
"21.9933","3106.81","0.183277","170.704","659.8"
"22.0232","3107.08","0.183526","170.719","660.7"
"22.0532","3107.05","0.183777","170.717","661.6"
"22.0833","3107.56","0.184027","170.745","662.5"
"22.1133","3107.74","0.184277","170.755","663.4"
"22.1432","3107.67","0.184527","170.751","664.3"
"22.1732","3107.87","0.184776","170.762","665.2"
"22.2033","3108.24","0.185027","170.782","666.1"
"22.2333","3108.36","0.185277","170.789","667"
"22.2632","3108.43","0.185526","170.793","667.9"
"22.2932","3108.73","0.185777","170.809","668.8"
"22.3233","3108.82","0.186027","170.814","669.7"
"22.3532","3108.97","0.186277","170.822","670.6"
"22.3833","3109.22","0.186527","170.836","671.5"
"22.4133","3109.37","0.186777","170.845","672.4"
"22.4432","3109.49","0.187026","170.851","673.3"
"22.4732","3110.08","0.187276","170.883","674.2"
"22.5033","3110.2","0.187527","170.89","675.1"
"22.5333","3110.23","0.187777","170.892","676"
"22.5632","3110.48","0.188027","170.905","676.9"
"22.5932","3110.79","0.188277","170.922","677.8"
"22.6233","3110.93","0.188527","170.93","678.7"
"22.6533","3111.36","0.188777","170.954","679.6"
"22.6832","3111.27","0.189026","170.949","680.5"
"22.7133","3111.79","0.189277","170.978","681.4"
"22.7432","3111.65","0.189527","170.97","682.3"
"22.7732","3111.77","0.189777","170.976","683.2"
"22.8033","3112.47","0.190027","171.015","684.1"
"22.8333","3112.72","0.190277","171.028","685"
"22.8632","3112.65","0.190527","171.025","685.9"
"22.8932","3112.65","0.190776","171.025","686.8"
"22.9233","3113.01","0.191027","171.045","687.7"
"22.9533","3113.3","0.191277","171.06","688.6"
"22.9832","3113.17","0.191527","171.0532","689.5"
"23.0132","3113.66","0.191777","171.08","690.4"
"23.0433","3113.96","0.192027","171.097","691.3"
"23.0733","3113.88","0.192277","171.092","692.2"
"23.1032","3113.95","0.192527","171.096","693.1"
"23.1333","3114","0.192777","171.099","694"
"23.1633","3111.41","0.193027","170.9564","694.9"
"23.1932","3111.3","0.193277","170.951","695.8"
"23.2232","3112.27","0.193527","171.004","696.7"
"23.2532","3112.51","0.193777","171.017","697.6"
"23.2832","3111.72","0.194027","170.974","698.5"
"23.3132","3111.89","0.194277","170.983","699.4"
"23.3432","3112.36","0.194527","171.009","700.3"
"23.3733","3112.84","0.194777","171.035","701.2"
"23.4032","3112.97","0.195026","171.0424","702.1"
"23.4332","3112.76","0.195276","171.031","703"
"23.4633","3113.64","0.195527","171.079","703.9"
"23.4933","3113.65","0.195777","171.08","704.8"
"23.5232","3113.87","0.196027","171.092","705.7"
"23.5533","3113.85","0.196277","171.091","706.6"
"23.5833","3114.02","0.196527","171.1","707.5"
"23.6133","3114.15","0.196777","171.107","708.4"
"23.6433","3114.28","0.197027","171.114","709.3"
"23.6733","3114.77","0.197277","171.141","710.2"
"23.7033","3114.9","0.197527","171.148","711.1"
"23.7332","3114.98","0.197777","171.152","712"
"23.7632","3115.01","0.198027","171.154","712.9"
"23.7933","3115.29","0.198277","171.17","713.8"
"23.8233","3115.33","0.198527","171.172","714.7"
"23.8532","3115.17","0.198776","171.163","715.6"
"23.8833","3115.5","0.199027","171.181","716.5"
"23.9133","3115.82","0.199277","171.199","717.4"
"23.9432","3116.1","0.199527","171.214","718.3"
"23.9732","3116.27","0.199777","171.223","719.2"
"24.0033","3116.43","0.200027","171.232","720.1"
"24.0333","3116.57","0.200277","171.24","721"
"24.0633","3116.64","0.200527","171.244","721.9"
"24.0933","3116.87","0.200777","171.256","722.8"
"24.1233","3117.24","0.201027","171.277","723.7"
"24.1532","3117.3","0.201277","171.28","724.6"
"24.1832","3117.54","0.201527","171.293","725.5"
"24.2133","3117.89","0.201777","171.312","726.4"
"24.2433","3117.9","0.202027","171.313","727.3"
"24.2732","3117.82","0.202276","171.3088","728.2"
"24.3033","3118.07","0.202527","171.322","729.1"
"24.3333","3117.38","0.202777","171.285","730"
"24.3632","3117.13","0.203027","171.271","730.9"
"24.3932","3117.21","0.203277","171.275","731.8"
"24.4232","3117.51","0.203527","171.292","732.7"
"24.4532","3117.88","0.203777","171.312","733.6"
"24.4832","3118.04","0.204027","171.321","734.5"
"24.5133","3118.29","0.204277","171.335","735.4"
"24.5433","3118.17","0.204527","171.328","736.3"
"24.5732","3118.37","0.204777","171.3388","737.2"
"24.6032","3118.76","0.205027","171.36","738.1"
"24.6333","3119.27","0.205277","171.388","739"
"24.6633","3119.2","0.205527","171.385","739.9"
"24.6932","3119.18","0.205777","171.383","740.8"
"24.7233","3119.62","0.206027","171.408","741.7"
"24.7533","3119.87","0.206278","171.422","742.6"
"24.7833","3119.83","0.206527","171.419","743.5"
"24.8132","3120.07","0.206777","171.432","744.4"
"24.8432","3120.34","0.207027","171.447","745.3"
"24.8732","3120.29","0.207277","171.445","746.2"
"24.9032","3120.38","0.207527","171.449","747.1"
"24.9332","3120.62","0.207777","171.462","748"
"24.9633","3120.56","0.208027","171.46","748.9"
"24.9933","3120.8","0.208277","171.4724","749.8"
"25.0232","3120.75","0.208526","171.47","750.7"
"25.0533","3121.05","0.208777","171.486","751.6"
"25.0832","3121.07","0.209027","171.487","752.5"
"25.1132","3121.1","0.209276","171.489","753.4"
"25.1432","3121.43","0.209527","171.507","754.3"
"25.1733","3121.67","0.209777","171.52","755.2"
"25.2033","3122.05","0.210027","171.541","756.1"
"25.2332","3121.87","0.210277","171.531","757"
"25.2633","3121.78","0.210527","171.527","757.9"
"25.2933","3122.3","0.210777","171.555","758.8"
"25.3232","3122","0.211027","171.539","759.7"
"25.3532","3122.05","0.211277","171.541","760.6"
"25.3833","3122.41","0.211527","171.561","761.5"
"25.4132","3122.45","0.211777","171.563","762.4"
"25.4432","3122.73","0.212026","171.579","763.3"
"25.4733","3122.63","0.212277","171.573","764.2"
"25.5033","3122.83","0.212527","171.584","765.1"
"25.5332","3122.81","0.212776","171.583","766"
"25.5632","3122.71","0.213027","171.578","766.9"
"25.5933","3122.31","0.213277","171.556","767.8"
"25.6233","3121.17","0.213527","171.493","768.7"
"25.6532","3121.42","0.213776","171.507","769.6"
"25.6832","3121.78","0.214027","171.526","770.5"
"25.7133","3120.28","0.214277","171.444","771.4"
"25.7433","3120.07","0.214527","171.433","772.3"
"25.7732","3120.39","0.214777","171.45","773.2"
"25.8033","3120.71","0.215027","171.468","774.1"
"25.8333","3118.63","0.215277","171.353","775"
"25.8632","3118.84","0.215527","171.365","775.9"
"25.8933","3119.07","0.215777","171.377","776.8"
"25.9233","3119.47","0.216027","171.399","777.7"
"25.9532","3119.3","0.216277","171.39","778.6"
"25.9832","3118.96","0.216527","171.3716","779.5"
"26.0132","3117.51","0.216777","171.292","780.4"
"26.0433","3116.88","0.217027","171.257","781.3"
"26.0732","3116.96","0.217277","171.262","782.2"
"26.1032","3116.7","0.217526","171.248","783.1"
"26.1333","3116.68","0.217777","171.246","784"
"26.1633","3116.21","0.218027","171.22","784.9"
"26.1933","3116.17","0.218277","171.218","785.8"
"26.2233","3116.34","0.218527","171.227","786.7"
"26.2533","3116.43","0.218777","171.232","787.6"
"26.2832","3116.23","0.219027","171.221","788.5"
"26.3133","3116.59","0.219277","171.241","789.4"
"26.3433","3116.4","0.219527","171.231","790.3"
"26.3732","3115.98","0.219777","171.208","791.2"
"26.4032","3116.41","0.220027","171.232","792.1"
"26.4333","3116.37","0.220277","171.229","793"
"26.4633","3116.32","0.220527","171.226","793.9"
"26.4932","3115.83","0.220777","171.199","794.8"
"26.5232","3115.9","0.221027","171.203","795.7"
"26.5533","3116.07","0.221277","171.213","796.6"
"26.5833","3116.03","0.221527","171.21","797.5"
"26.6132","3115.72","0.221776","171.194","798.4"
"26.6433","3115.85","0.222027","171.201","799.3"
"26.6733","3115.7","0.222277","171.192","800.2"
"26.7032","3114.95","0.222527","171.151","801.1"
"26.7333","3114.67","0.222777","171.136","802"
"26.7633","3112.7","0.223027","171.028","802.9"
"26.7932","3112.09","0.223277","170.994","803.8"
"26.8232","3108.41","0.223526","170.792","804.7"
"26.8533","3108.43","0.223777","170.793","805.6"
"26.8833","3109.04","0.224028","170.826","806.5"
"26.9132","3108.46","0.224277","170.794","807.4"
"26.9432","3107.88","0.224526","170.763","808.3"
"26.9733","3108.02","0.224777","170.77","809.2"
"27.0033","3107.89","0.225027","170.763","810.1"
"27.0332","3107.27","0.225276","170.729","811"
"27.0632","3107.22","0.225527","170.726","811.9"
"27.0933","3106.92","0.225777","170.71","812.8"
"27.1232","3106.4","0.226027","170.681","813.7"
"27.1532","3105.99","0.226277","170.659","814.6"
"27.1833","3105.26","0.226527","170.619","815.5"
"27.2132","3102.2","0.226777","170.451","816.4"
"27.2432","3100.73","0.227027","170.37","817.3"
"27.2732","3100.21","0.227277","170.341","818.2"
"27.3033","3094.35","0.227527","170.019","819.1"
"27.3333","3080.84","0.227777","169.277","820"
"27.3632","3070.17","0.228026","168.691","820.9"
"27.3933","3060.37","0.228277","168.152","821.8"
"27.4233","3017.36","0.228527","165.789","822.7"
"27.4533","2911.28","0.228777","159.96","823.6"
"27.4832","2708.02","0.229027","148.792","824.5"
"27.491","-121.812","0.229091","-6.69297","824.724"