File: experimental_data/tensile_specimen_test_data/tensile_test_data/20250312/original_data/SSS 8 03-12-25 16 18 12 下午/数采：横梁, … - (实时值).csv
"文件路径: C:\Users\Lenovo\Desktop\Wayne\20250312\原始数据\SSS 8 03-12-25 16 18 12 下午\数采：横梁, … - (实时值).csv   "
"试验: 拉伸试验（UNIVER）      视频引伸计采集变形-W 1"
"试验运行: SSS 8"
"日期: 2025/3/12 13:22:00"
""
""
"横梁 ","力 ","视频引伸计变形 ","应变 ","时间 "
"mm","N","mm","mm/mm","sec"
"0.0025616","-83.275","0.001","2e-05","0.1"
"0.026594","-46.4773","0.0635","0.00127","0.8"
"0.0498347","6.95711","0.1363","0.002726","1.5"
"0.0732151","76.2406","0.1997","0.003994","2.2"
"0.0965489","155.458","0.2572","0.005144","2.9"
"0.119883","239.358","0.2971","0.005942","3.6"
"0.143217","324.272","0.3324","0.006648","4.3"
"0.16655","410.224","0.3669","0.007338","5"
"0.189884","495.012","0.3976","0.007952","5.7"
"0.213171","578.553","0.4242","0.008484","6.4"
"0.236552","661.474","0.4503","0.009006","7.1"
"0.259932","742.511","0.4759","0.009518","7.8"
"0.283173","821.139","0.4974","0.009948","8.5"
"0.306553","897.649","0.5199","0.010398","9.2"
"0.329934","972.177","0.5414","0.010828","9.9"
"0.353174","1044.78","0.5643","0.011286","10.6"
"0.376555","1115","0.5849","0.011698","11.3"
"0.399888","1181.66","0.6055","0.01211","12"
"0.423176","1245.36","0.6298","0.012596","12.7"
"0.446603","1304.68","0.6497","0.012994","13.4"
"0.46989","1359.59","0.6681","0.013362","14.1"
"0.493177","1410.32","0.6911","0.013822","14.8"
"0.516558","1454.37","0.7147","0.014294","15.5"
"0.539891","1497.93","0.7322","0.014644","16.2"
"0.563179","1537.72","0.7523","0.015046","16.9"
"0.586559","1575.34","0.7732","0.015464","17.6"
"0.609939","1590.4","0.8007","0.016014","18.3"
"0.63318","1626.41","0.8191","0.016382","19"
"0.656514","1657.46","0.8403","0.016806","19.7"
"0.679941","1686.58","0.8589","0.017178","20.4"
"0.703181","1713.49","0.8766","0.017532","21.1"
"0.726562","1738.96","0.8966","0.017932","21.8"
"0.749942","1762.82","0.9192","0.018384","22.5"
"0.773183","1784.97","0.9371","0.018742","23.2"
"0.796563","1806.67","0.9558","0.019116","23.9"
"0.819897","1812.03","0.9937","0.019874","24.6"
"0.843184","1838.65","1.013","0.02026","25.3"
"0.866565","1858.97","1.0317","0.020634","26"
"0.889899","1877.15","1.0485","0.02097","26.7"
"0.913186","1894.63","1.0699","0.021398","27.4"
"0.936566","1911.49","1.0868","0.021736","28.1"
"0.9599","1927.83","1.104","0.02208","28.8"
"0.983187","1942.88","1.1255","0.02251","29.5"
"1.00652","1957.54","1.142","0.02284","30.2"
"1.02995","1972.05","1.1598","0.023196","30.9"
"1.05324","1985.61","1.177","0.02354","31.6"
"1.07652","1998.96","1.1979","0.023958","32.3"
"1.0999","2011.8","1.2132","0.024264","33"
"1.12319","2024.25","1.2311","0.024622","33.7"
"1.14657","2036.13","1.252","0.02504","34.4"
"1.16995","2048.05","1.2704","0.025408","35.1"
"1.19315","2058.35","1.2855","0.02571","35.8"
"1.21657","2069.63","1.3042","0.026084","36.5"
"1.23991","2080.37","1.3224","0.026448","37.2"
"1.26319","2090.02","1.3405","0.02681","37.9"
"1.28657","2100.21","1.3561","0.027122","38.6"
"1.30991","2109.59","1.3762","0.027524","39.3"
"1.33319","2118.26","1.392","0.02784","40"
"1.35653","2127.6","1.4095","0.02819","40.7"
"1.37991","2136.39","1.4263","0.028526","41.4"
"1.40324","2143.71","1.4469","0.028938","42.1"
"1.42653","2152.56","1.4646","0.029292","42.8"
"1.44991","2160.9","1.4815","0.02963","43.5"
"1.47324","2168.91","1.5014","0.030028","44.2"
"1.49653","2176.71","1.5186","0.030372","44.9"
"1.51991","2184.37","1.5364","0.030728","45.6"
"1.5432","2191.45","1.5521","0.031042","46.3"
"1.56658","2199.14","1.5711","0.031422","47"
"1.58996","2206.33","1.5893","0.031786","47.7"
"1.6132","2212.97","1.605","0.0321","48.4"
"1.63653","2220","1.6255","0.03251","49.1"
"1.65991","2226.89","1.642","0.03284","49.8"
"1.6832","2233.22","1.6588","0.033176","50.5"
"1.70654","2240.15","1.6779","0.033536","51.2"
"1.72992","2245.5","1.694","0.03388","51.9"
"1.7532","2251.59","1.7103","0.034206","52.6"
"1.77649","2257.99","1.7265","0.03453","53.3"
"1.79987","2264.31","1.7454","0.034908","54"
"1.82325","2270.46","1.7627","0.035254","54.7"
"1.84649","2276.05","1.7801","0.035602","55.4"
"1.86992","2282.01","1.7981","0.035962","56.1"
"1.89325","2287.69","1.8167","0.036334","56.8"
"1.91649","2293.16","1.8331","0.036662","57.5"
"1.93992","2298.95","1.8505","0.03701","58.2"
"1.96321","2304.06","1.8712","0.037424","58.9"
"1.98654","2309.78","1.8879","0.037758","59.6"
"2.00997","2315.18","1.9056","0.038112","60.3"
"2.03321","2320.27","1.9236","0.038472","61"
"2.0565","2325.42","1.9396","0.038792","61.7"
"2.07992","2331.04","1.9566","0.039132","62.4"
"2.10321","2335.89","1.9716","0.039432","63.1"
"2.12654","2340.9","1.9928","0.039856","63.8"
"2.14988","2345.81","2.3816","0.047632","64.5"
"2.17326","2351","2.3979","0.047958","65.2"
"2.1965","2355.62","2.4151","0.048302","65.9"
"2.21988","2360.54","2.4322","0.048644","66.6"
"2.24321","2365.19","2.4504","0.049008","67.3"
"2.26655","2369.98","2.4673","0.049346","68"
"2.28993","2374.66","2.4834","0.049668","68.7"
"2.31321","2379.7","2.5005","0.05001","69.4"
"2.3365","2384.17","2.5186","0.050372","70.1"
"2.35993","2388.57","2.5384","0.050768","70.8"
"2.38322","2393.39","2.553","0.05106","71.5"
"2.4065","2397.55","2.571","0.05142","72.2"
"2.42993","2402.41","2.5891","0.051782","72.9"
"2.45322","2406.7","2.6064","0.052128","73.6"
"2.4765","2410.76","2.6255","0.05251","74.3"
"2.49989","2415.32","2.641","0.05282","75"
"2.52322","2419.83","2.661","0.05322","75.7"
"2.54655","2423.97","2.679","0.05358","76.4"
"2.56989","2428.59","2.6927","0.053854","77.1"
"2.59322","2432.56","2.7094","0.054188","77.8"
"2.61655","2436.74","2.7319","0.054638","78.5"
"2.63989","2441.31","2.7463","0.054926","79.2"
"2.66322","2445.25","2.764","0.05528","79.9"
"2.68651","2448.8","2.7849","0.055698","80.6"
"2.70994","2453.52","2.8015","0.05603","81.3"
"2.73327","2457.7","2.8148","0.056296","82"
"2.75651","2461.25","2.8308","0.056616","82.7"
"2.77989","2465.47","2.8505","0.05701","83.4"
"2.80322","2469.51","2.8675","0.05735","84.1"
"2.82651","2472.91","2.8815","0.05763","84.8"
"2.84994","2477.61","2.9028","0.058056","85.5"
"2.87323","2481.49","2.9209","0.058418","86.2"
"2.89651","2484.96","2.9355","0.05871","86.9"
"2.91989","2488.88","2.9585","0.05917","87.6"
"2.94323","2492.87","2.9697","0.059394","88.3"
"2.96656","2496.79","2.9871","0.059742","89"
"2.9899","2500.82","3.0079","0.060158","89.7"
"3.01323","2504.2","3.0234","0.060468","90.4"
"3.03652","2508.02","3.0413","0.060826","91.1"
"3.0599","2512.05","3.0599","0.061198","91.8"
"3.08328","2515.68","3.0822","0.061644","92.5"
"3.10652","2519.14","3.0958","0.061916","93.2"
"3.1299","2523.11","3.1114","0.062228","93.9"
"3.15328","2526.71","3.1293","0.062586","94.6"
"3.17647","2530.08","3.1464","0.062928","95.3"
"3.1999","2533.85","3.1662","0.063324","96"
"3.22323","2537.45","3.181","0.06362","96.7"
"3.24652","2540.88","3.2013","0.064026","97.4"
"3.2699","2544.63","3.2169","0.064338","98.1"
"3.29323","2547.92","3.2337","0.064674","98.8"
"3.31652","2551.58","3.2505","0.06501","99.5"
"3.33986","2555.1","3.2679","0.065358","100.2"
"3.36324","2558.64","3.2853","0.065706","100.9"
"3.38652","2561.97","3.3033","0.066066","101.6"
"3.4099","2565.49","3.3193","0.066386","102.3"
"3.43328","2569.09","3.3419","0.066838","103"
"3.45648","2571.71","3.3588","0.067176","103.7"
"3.47986","2575.34","3.3822","0.067644","104.4"
"3.50329","2577.78","3.4017","0.068034","105.1"
"3.52648","2580.64","3.4187","0.068374","105.8"
"3.54991","2584.25","3.4387","0.068774","106.5"
"3.57329","2588.14","3.4588","0.069176","107.2"
"3.59648","2591.04","3.4785","0.06957","107.9"
"3.61986","2594.38","3.4983","0.069966","108.6"
"3.64324","2597.95","3.5215","0.07043","109.3"
"3.66653","2601.16","3.5376","0.070752","110"
"3.68991","2604.38","3.5584","0.071168","110.7"
"3.71324","2607.48","3.58","0.0716","111.4"
"3.73648","2610.16","3.599","0.07198","112.1"
"3.75991","2613.69","3.6179","0.072358","112.8"
"3.78325","2616.91","3.6418","0.072836","113.5"
"3.80653","2619.8","3.6629","0.073258","114.2"
"3.82987","2622.91","3.6835","0.07367","114.9"
"3.85325","2626.16","3.7002","0.074004","115.6"
"3.87653","2629.12","3.7232","0.074464","116.3"
"3.89987","2632.2","3.7429","0.074858","117"
"3.92325","2635.42","3.7622","0.075244","117.7"
"3.94654","2637.98","3.7838","0.075676","118.4"
"3.96992","2641.27","3.8092","0.076184","119.1"
"3.99325","2644.35","3.827","0.07654","119.8"
"4.01654","2646.8","3.8469","0.076938","120.5"
"4.03987","2649.91","3.869","0.07738","121.2"
"4.0632","2652.47","3.8886","0.077772","121.9"
"4.08654","2655.49","3.9122","0.078244","122.6"
"4.10992","2658.71","3.9282","0.078564","123.3"
"4.13321","2661.2","3.9517","0.079034","124"
"4.15649","2576.42","3.9189","0.078378","124.7"
"4.17987","2603.91","3.9268","0.078536","125.4"
"4.20325","2629.64","3.9407","0.078814","126.1"
"4.22654","2646.37","3.9601","0.079202","126.8"
"4.24983","2653.93","3.9796","0.079592","127.5"
"4.27325","2660.99","3.9964","0.079928","128.2"
"4.29659","2665.77","4.0155","0.08031","128.9"
"4.31983","2669.59","4.0404","0.080808","129.6"
"4.34326","2672.89","4.0568","0.081136","130.3"
"4.36654","2675.82","4.0765","0.08153","131"
"4.38988","2678.57","4.1014","0.082028","131.7"
"4.41326","2681.51","4.1213","0.082426","132.4"
"4.43655","2683.81","4.1414","0.082828","133.1"
"4.45988","2686.72","4.1667","0.083264","133.8"
"4.48321","2689.35","4.1826","0.083652","134.5"
"4.50655","2691.97","4.2032","0.084064","135.2"
"4.52988","2694.51","4.2248","0.084496","135.9"
"4.55326","2697.47","4.2448","0.084896","136.6"
"4.57655","2699.81","4.2663","0.085326","137.3"
"4.59984","2702.06","4.2899","0.085798","138"
"4.62326","2704.72","4.3128","0.086256","138.7"
"4.6466","2707.25","4.3312","0.086624","139.4"
"4.66984","2709.45","4.346","0.08692","140.1"
"4.69326","2712.09","4.3742","0.08738","140.8"
"4.71655","2714.74","4.3962","0.087924","141.5"
"4.73984","2716.77","4.4174","0.088348","142.2"
"4.76327","2719.6","4.4336","0.088672","142.9"
"4.78655","2721.72","4.4628","0.089256","143.6"
"4.80989","2723.92","4.4764","0.089528","144.3"
"4.83327","2726.55","4.4976","0.089952","145"
"4.85651","2728.57","4.5218","0.090436","145.7"
"4.87984","2730.72","4.5432","0.090864","146.4"
"4.90327","2733.45","4.5636","0.091272","147.1"
"4.92651","2735.37","4.5869","0.091738","147.8"
"4.94989","2737.58","4.6085","0.09217","148.5"
"4.97327","2739.76","4.6259","0.092518","149.2"
"4.99656","2742.2","4.6471","0.092942","149.9"
"5.01984","2744.35","4.6716","0.093432","150.6"
"5.04322","2746.65","4.6894","0.093788","151.3"
"5.06656","2748.85","4.7047","0.094094","152"
"5.08985","2750.81","4.733","0.09466","152.7"
"5.11327","2753.49","4.7532","0.095064","153.4"
"5.13656","2755.47","4.767","0.09534","154.1"
"5.15985","2757.17","4.7904","0.095808","154.8"
"5.18323","2759.38","4.8172","0.096344","155.5"
"5.20651","2761.25","4.8377","0.096754","156.2"
"5.22985","2763.25","4.8511","0.097022","156.9"
"5.25332","2765.96","4.8792","0.097584","157.6"
"5.27652","2767.59","4.8969","0.097938","158.3"
"5.29985","2769.57","4.9205","0.09841","159"
"5.32323","2771.72","4.9399","0.098798","159.7"
"5.34656","2773.8","4.9648","0.099296","160.4"
"5.3699","2775.84","4.99","0.0998","161.1"
"5.39323","2778.02","5.0061","0.100122","161.8"
"5.41657","2779.53","5.0267","0.100534","162.5"
"5.43985","2781.39","5.0468","0.100936","163.2"
"5.46323","2783.83","5.0758","0.101516","163.9"
"5.48657","2785.5","5.0893","0.101786","164.6"
"5.50985","2787.01","5.1075","0.10215","165.3"
"5.53323","2789.11","5.1296","0.102592","166"
"5.55662","2790.91","5.149","0.10298","166.7"
"5.57981","2792.76","5.1746","0.10336","167.4"
"5.60324","2794.89","5.1963","0.103926","168.1"
"5.62657","2796.48","5.2174","0.104348","168.8"
"5.64986","2798.12","5.236","0.10472","169.5"
"5.67328","2800.16","5.2673","0.105346","170.2"
"5.69657","2802.21","5.2823","0.105646","170.9"
"5.71981","2803.74","5.3024","0.106048","171.6"
"5.74319","2805.5","5.3238","0.106476","172.3"
"5.76657","2807.02","5.3473","0.106946","173"
"5.78986","2809.06","5.3728","0.107456","173.7"
"5.81324","2810.8","5.3833","0.107666","174.4"
"5.83657","2812.49","5.417","0.10834","175.1"
"5.85986","2814.04","5.4325","0.10865","175.8"
"5.88319","2815.65","5.4553","0.109106","176.5"
"5.90658","2817.9","5.4708","0.109498","177.2"
"5.92982","2819.23","5.4988","0.109976","177.9"
"5.95324","2821.18","5.5162","0.110324","178.6"
"5.97658","2822.68","5.5402","0.110804","179.3"
"5.99982","2823.8","5.5625","0.11125","180"
"6.02324","2825.91","5.5852","0.111704","180.7"
"6.04658","2827.67","5.6008","0.112016","181.4"
"6.06982","2828.98","5.6238","0.112476","182.1"
"6.09325","2830.75","5.646","0.11292","182.8"
"6.11658","2832.22","5.6694","0.113388","183.5"
"6.13982","2833.72","5.692","0.11384","184.2"
"6.16325","2835.24","5.711","0.11422","184.9"
"6.18653","2836.88","5.7362","0.114724","185.6"
"6.20987","2838.16","5.7508","0.115016","186.3"
"6.2332","2839.89","5.7744","0.115488","187"
"6.25658","2839.65","5.799","0.11598","187.7"
"6.27982","2841.79","5.8246","0.116492","188.4"
"6.3032","2843.72","5.85","0.117","189.1"
"6.32658","2845.02","5.867","0.11734","189.8"
"6.34982","2846.48","5.8823","0.117646","190.5"
"6.37325","2848.32","5.914","0.11828","191.2"
"6.39663","2849.92","5.9286","0.118572","191.9"
"6.41983","2850.94","5.9489","0.118978","192.6"
"6.44321","2852.69","5.9712","0.119424","193.3"
"6.46659","2853.79","5.9967","0.119934","194"
"6.48987","2855.61","6.0131","0.120262","194.7"
"6.51325","2857.14","6.0415","0.12083","195.4"
"6.53654","2858.41","6.0568","0.121136","196.1"
"6.55988","2859.41","6.0881","0.121762","196.8"
"6.58321","2861.08","6.1034","0.122068","197.5"
"6.60654","2862.58","6.1232","0.122464","198.2"
"6.62988","2863.65","6.1471","0.122942","198.9"
"6.65321","2864.99","6.1724","0.123448","199.6"
"6.67659","2866.59","6.1975","0.12395","200.3"
"6.69988","2867.8","6.2118","0.124236","201"
"6.72321","2868.89","6.235","0.1247","201.7"
"6.74659","2870.57","6.2627","0.125254","202.4"
"6.76983","2871.37","6.2825","0.12565","203.1"
"6.79321","2873.12","6.3025","0.12605","203.8"
"6.81664","2874.74","6.33","0.1266","204.5"
"6.83984","2875.75","6.345","0.1269","205.2"
"6.86322","2876.82","6.3727","0.127454","205.9"
"6.88655","2878.17","6.3912","0.127824","206.6"
"6.90988","2879.2","6.4126","0.128252","207.3"
"6.93326","2821.7","6.4035","0.12807","208"
"6.95655","2838.55","6.4182","0.128364","208.7"
"6.97984","2853.39","6.4264","0.128528","209.4"
"7.00322","2862.98","6.4432","0.128864","210.1"
"7.02655","2868.82","6.4664","0.129354","210.8"
"7.04989","2872.69","6.49","0.1298","211.5"
"7.07322","2875.61","6.51","0.1302","212.2"
"7.0966","2877.93","6.5323","0.130646","212.9"
"7.11989","2879.61","6.5452","0.130904","213.6"
"7.14317","2881.05","6.5659","0.131318","214.3"
"7.1666","2883.08","6.5961","0.131922","215"
"7.18989","2884.47","6.6157","0.132434","215.7"
"7.21318","2885.79","6.6444","0.132888","216.4"
"7.2366","2887.08","6.6739","0.133478","217.1"
"7.25984","2888.24","6.6892","0.133784","217.8"
"7.28318","2889.42","6.712","0.13424","218.5"
"7.3066","2891.12","6.7276","0.134552","219.2"
"7.32984","2892.06","6.7463","0.134926","219.9"
"7.35323","2893.63","6.7723","0.135446","220.6"
"7.37656","2894.89","6.7981","0.135962","221.3"
"7.39985","2895.48","6.8173","0.136346","222"
"7.42318","2896.76","6.8397","0.136794","222.7"
"7.44661","2898.12","6.8638","0.137276","223.4"
"7.46989","2899.03","6.8847","0.137694","224.1"
"7.49318","2899.96","6.9014","0.138028","224.8"
"7.51661","2901.6","6.9266","0.138532","225.5"
"7.5399","2902.64","6.9462","0.138924","226.2"
"7.56318","2903.46","6.9719","0.139438","226.9"
"7.58656","2904.82","6.9897","0.139794","227.6"
"7.6099","2905.86","7.0176","0.140352","228.3"
"7.63323","2906.83","7.04","0.1408","229"
"7.65661","2908.07","7.0634","0.141268","229.7"
"7.67985","2908.84","7.0833","0.141666","230.4"
"7.70319","2909.86","7.1024","0.142048","231.1"
"7.72657","2911.26","7.1239","0.142478","231.8"
"7.74985","2912.33","7.1538","0.143076","232.5"
"7.77323","2913.33","7.1697","0.143394","233.2"
"7.79657","2914.53","7.1888","0.143776","233.9"
"7.81986","2915.28","7.2134","0.144268","234.6"
"7.84319","2916.15","7.2453","0.144906","235.3"
"7.86657","2917.3","7.2658","0.145316","236"
"7.8899","2918.22","7.2907","0.145814","236.7"
"7.91319","2919.15","7.3109","0.146218","237.4"
"7.93657","2920.21","7.3327","0.146654","238.1"
"7.9599","2920.99","7.3516","0.147032","238.8"
"7.98319","2922.37","7.3791","0.147582","239.5"
"8.00657","2923.28","7.4107","0.148214","240.2"
"8.02986","2923.8","7.4265","0.14853","240.9"
"8.05319","2925.06","7.442","0.14884","241.6"
"8.07662","2926.35","7.4738","0.149476","242.3"
"8.09986","2927","7.5051","0.150102","243"
"8.12319","2927.72","7.523","0.15046","243.7"
"8.14657","2928.86","7.5409","0.150818","244.4"
"8.16991","2929.58","7.572","0.15144","245.1"
"8.1932","2930.6","7.5944","0.151888","245.8"
"8.21658","2931.74","7.6193","0.152386","246.5"
"8.23991","2932.47","7.6454","0.152908","247.2"
"8.2632","2933.22","7.6674","0.153348","247.9"
"8.28653","2934.41","7.7018","0.154036","248.6"
"8.30996","2935.21","7.718","0.15436","249.3"
"8.3332","2936","7.7473","0.154946","250"
"8.35658","2936.99","7.7701","0.155402","250.7"
"8.37991","2937.82","7.7948","0.155896","251.4"
"8.40315","2938.77","7.819","0.15638","252.1"
"8.42658","2939.5","7.8354","0.156708","252.8"
"8.44987","2940.43","7.8599","0.157198","253.5"
"8.4732","2941.11","7.8877","0.157754","254.2"
"8.49663","2942.27","7.9084","0.158168","254.9"
"8.51987","2942.91","7.9306","0.158612","255.6"
"8.54316","2943.75","7.9578","0.159156","256.3"
"8.56658","2944.45","7.9854","0.159708","257"
"8.58992","2945.48","7.9983","0.159966","257.7"
"8.6132","2946.05","8.0248","0.160496","258.4"
"8.63654","2946.96","8.049","0.16098","259.1"
"8.65992","2947.99","8.0769","0.161538","259.8"
"8.68316","2948.59","8.1007","0.162014","260.5"
"8.70654","2949.4","8.1247","0.162494","261.2"
"8.72992","2950.14","8.15","0.163","261.9"
"8.75321","2951.1","8.1688","0.163376","262.6"
"8.77659","2951.99","8.1967","0.163934","263.3"
"8.79992","2952.7","8.2148","0.164296","264"
"8.82316","2952.96","8.2448","0.164896","264.7"
"8.84659","2954.11","8.2659","0.165318","265.4"
"8.86988","2954.98","8.2886","0.165772","266.1"
"8.89316","2955.5","8.311","0.16622","266.8"
"8.91659","2956.71","8.3409","0.166818","267.5"
"8.93988","2957.5","8.3568","0.167136","268.2"
"8.96317","2957.62","8.3857","0.167714","268.9"
"8.98655","2958.73","8.41","0.1682","269.6"
"9.00993","2959.56","8.4339","0.168678","270.3"
"9.03321","2960.05","8.4523","0.169046","271"
"9.05655","2961.07","8.4806","0.169612","271.7"
"9.07988","2961.74","8.5115","0.17023","272.4"
"9.10322","2962.28","8.5236","0.170472","273.1"
"9.12655","2963.33","8.5564","0.171128","273.8"
"9.14993","2963.93","8.5758","0.171516","274.5"
"9.17317","2964.37","8.6064","0.172128","275.2"
"9.1966","2965.37","8.6241","0.172482","275.9"
"9.21993","2966.18","8.6467","0.172934","276.6"
"9.24317","2966.3","8.6716","0.173432","277.3"
"9.26655","2967.22","8.6925","0.17385","278"
"9.28993","2967.83","8.7191","0.174382","278.7"
"9.31322","2968.61","8.7418","0.174836","279.4"
"9.33655","2969.54","8.7694","0.175388","280.1"
"9.35989","2970.18","8.7809","0.175618","280.8"
"9.38317","2970.5","8.8178","0.176356","281.5"
"9.40655","2971.29","8.8382","0.176764","282.2"
"9.42989","2972","8.8609","0.177218","282.9"
"9.45322","2972.84","8.8904","0.177808","283.6"
"9.47651","2973.56","8.918","0.17836","284.3"
"9.49989","2974.19","8.9376","0.178752","285"
"9.52318","2974.74","8.9551","0.179102","285.7"
"9.54656","2975.4","8.9846","0.179692","286.4"
"9.56994","2976.23","9.0044","0.180088","287.1"
"9.59318","2976.67","9.0274","0.180548","287.8"
"9.61656","2977.51","9.0611","0.181222","288.5"
"9.63999","2978.32","9.0847","0.181694","289.2"
"9.66318","2978.9","9.0992","0.181984","289.9"
"9.68651","2979.34","9.1242","0.182484","290.6"
"9.70994","2980.02","9.1494","0.182988","291.3"
"9.73318","2980.44","9.1705","0.18341","292"
"9.75656","2981.26","9.1936","0.183872","292.7"
"9.7799","2981.93","9.2292","0.184584","293.4"
"9.80318","2982.42","9.2453","0.184906","294.1"
"9.82652","2983.01","9.2678","0.185356","294.8"
"9.8499","2983.92","9.2961","0.185922","295.5"
"9.87318","2984.21","9.3186","0.186372","296.2"
"9.89656","2984.72","9.3473","0.186946","296.9"
"9.91995","2985.84","9.3661","0.187322","297.6"
"9.94319","2986.14","9.3988","0.187976","298.3"
"9.96652","2986.4","9.4239","0.188478","299"
"9.98995","2987.39","9.4475","0.18895","299.7"
"10.0132","2987.9","9.4752","0.189504","300.4"
"10.0365","2988.29","9.4864","0.189728","301.1"
"10.0599","2989.38","9.519","0.19038","301.8"
"10.0832","2989.58","9.539","0.19078","302.5"
"10.1065","2990.17","9.5671","0.191342","303.2"
"10.1299","2991.25","9.5919","0.191838","303.9"
"10.1532","2991.33","9.619","0.19238","304.6"
"10.1766","2991.69","9.6445","0.19289","305.3"
"10.1999","2992.74","9.6668","0.193336","306"
"10.2232","2992.95","9.6919","0.193838","306.7"
"10.2466","2993.8","9.7036","0.194072","307.4"
"10.2699","2994.41","9.7305","0.19461","308.1"
"10.2932","2994.61","9.7614","0.195228","308.8"
"10.3165","2995.37","9.7852","0.195704","309.5"
"10.34","2996.02","9.8105","0.19621","310.2"
"10.3632","2996.62","9.8357","0.196714","310.9"
"10.3865","2996.91","9.8491","0.196982","311.6"
"10.4099","2997.8","9.8781","0.197562","312.3"
"10.4332","2998.03","9.9056","0.198112","313"
"10.4566","2998.66","9.9286","0.198572","313.7"
"10.4799","2999.57","9.9488","0.198976","314.4"
"10.5032","2999.68","9.977","0.19954","315.1"
"10.5265","3000.07","9.9998","0.199996","315.8"
"10.5499","3000.75","10.0242","0.200484","316.5"
"10.5732","3001.01","10.0548","0.201096","317.2"
"10.5966","3001.97","10.0774","0.201548","317.9"
"10.6199","3002.55","10.1018","0.202036","318.6"
"10.6432","3002.58","10.123","0.20246","319.3"
"10.6665","3003.29","10.1531","0.203062","320"
"10.6899","3003.98","10.1805","0.20361","320.7"
"10.7132","3004.47","10.2057","0.204114","321.4"
"10.7365","3004.72","10.2278","0.204556","322.1"
"10.7599","3005.6","10.2529","0.205058","322.8"
"10.7832","3006.13","10.2791","0.205582","323.5"
"10.8065","3006.35","10.2977","0.205954","324.2"
"10.8299","3007.07","10.3262","0.206524","324.9"
"10.8532","3007.28","10.3479","0.206958","325.6"
"10.8765","3007.87","10.3743","0.207486","326.3"
"10.8999","3008.37","10.3978","0.207956","327"
"10.9232","3008.93","10.4291","0.208582","327.7"
"10.9465","3009.33","10.4475","0.20895","328.4"
"10.9699","3009.89","10.4719","0.209438","329.1"
"10.9932","3010.4","10.4953","0.209906","329.8"
"11.0165","3011","10.5221","0.210442","330.5"
"11.0399","3011.7","10.5401","0.210802","331.2"
"11.0632","3012","10.5704","0.211408","331.9"
"11.0865","3011.98","10.5975","0.21195","332.6"
"11.1099","3012.9","10.6143","0.212286","333.3"
"11.1333","3013.49","10.6401","0.212802","334"
"11.1565","3013.82","10.6692","0.213384","334.7"
"11.1799","3014.57","10.693","0.21386","335.4"
"11.2033","3014.98","10.7192","0.214384","336.1"
"11.2265","3015.08","10.7404","0.214808","336.8"
"11.2499","3015.96","10.7672","0.215344","337.5"
"11.2732","3016.11","10.7911","0.215822","338.2"
"11.2965","3016.5","10.8136","0.216272","338.9"
"11.3199","3017.21","10.8385","0.21677","339.6"
"11.3432","3017.92","10.8581","0.217162","340.3"
"11.3665","3018.05","10.8841","0.217682","341"
"11.3899","3018.95","10.912","0.21824","341.7"
"11.4132","3019.15","10.932","0.21864","342.4"
"11.4365","3019.44","10.9581","0.219162","343.1"
"11.4599","3019.96","10.9818","0.219636","343.8"
"11.4833","3020.22","11.0069","0.220138","344.5"
"11.5065","3020.88","11.0316","0.220632","345.2"
"11.5299","3021.33","11.0527","0.221054","345.9"
"11.5532","3021.85","11.0777","0.221554","346.6"
"11.5765","3022.1","11.0982","0.221964","347.3"
"11.5999","3022.79","11.1236","0.222472","348"
"11.6232","3023.26","11.1452","0.222904","348.7"
"11.6465","3023.22","11.1691","0.223382","349.4"
"11.6699","3023.85","11.1909","0.223818","350.1"
"11.6932","3024.26","11.2137","0.224274","350.8"
"11.7165","3024.62","11.2365","0.22473","351.5"
"11.7399","3025.49","11.2602","0.225204","352.2"
"11.7632","3025.64","11.2851","0.225702","352.9"
"11.7865","3025.58","11.309","0.22618","353.6"
"11.8099","3026.75","11.3294","0.226588","354.3"
"11.8333","3027.04","11.3533","0.227066","355"
"11.8566","3027.25","11.3743","0.227486","355.7"
"11.8799","3027.69","11.4002","0.228004","356.4"
"11.9033","3028.05","11.4222","0.228444","357.1"
"11.9266","3028.67","11.445","0.2289","357.8"
"11.9498","3028.91","11.4695","0.22939","358.5"
"11.9732","3029.32","11.4914","0.229828","359.2"
"11.9965","3029.73","11.5146","0.230292","359.9"
"12.0199","3030.29","11.5361","0.230722","360.6"
"12.0433","3031.04","11.5636","0.231272","361.3"
"12.0665","3030.69","11.5851","0.231702","362"
"12.0899","3031.72","11.6035","0.23207","362.7"
"12.1132","3031.77","11.6321","0.232598","363.4"
"12.1365","3032.08","11.6561","0.233122","364.1"
"12.1599","3032.57","11.6748","0.233496","364.8"
"12.1833","3033.07","11.6992","0.233984","365.5"
"12.2065","3033.06","11.7227","0.234454","366.2"
"12.2299","3033.72","11.7441","0.234882","366.9"
"12.2533","3034.22","11.7667","0.235334","367.6"
"12.2766","3034.59","11.7895","0.23579","368.3"
"12.2999","3035.01","11.8123","0.236246","369"
"12.3232","3035.26","11.8378","0.236756","369.7"
"12.3465","3035.65","11.8597","0.237194","370.4"
"12.3699","3035.94","11.8844","0.237688","371.1"
"12.3933","3036.44","11.9055","0.23811","371.8"
"12.4165","3036.56","11.9311","0.238622","372.5"
"12.4399","3037.31","11.9533","0.239066","373.2"
"12.4633","3037.54","11.9778","0.239556","373.9"
"12.4865","3037.74","12.0055","0.24011","374.6"
"12.5099","3038.43","12.0234","0.240468","375.3"
"12.5332","3038.95","12.0487","0.240974","376"
"12.5565","3039.03","12.0699","0.241398","376.7"
"12.5799","3039.5","12.0952","0.241904","377.4"
"12.6032","3039.97","12.12","0.2424","378.1"
"12.6265","3040.11","12.1434","0.242868","378.8"
"12.6499","3040.53","12.1645","0.24329","379.5"
"12.6732","3040.81","12.1891","0.243782","380.2"
"12.6965","3041.08","12.2181","0.244362","380.9"
"12.7199","3041.65","12.2359","0.244718","381.6"
"12.7432","3042.12","12.2613","0.245226","382.3"
"12.7665","3042.32","12.2867","0.245734","383"
"12.7899","3042.15","12.3095","0.24619","383.7"
"12.8132","3042.78","12.3275","0.24655","384.4"
"12.8365","3042.95","12.3528","0.247056","385.1"
"12.8599","3043.64","12.3752","0.247504","385.8"
"12.8833","3044.15","12.3981","0.247962","386.5"
"12.9065","3044.02","12.4165","0.24833","387.2"
"12.9299","3044.57","12.4445","0.24889","387.9"
"12.9532","3045.01","12.4668","0.249336","388.6"
"12.9765","3045.18","12.4874","0.249748","389.3"
"12.9999","3045.45","12.5134","0.250268","390"
"13.0232","3046.04","12.5358","0.250716","390.7"
"13.0465","3046.19","12.5546","0.251092","391.4"
"13.0699","3046.41","12.5788","0.251576","392.1"
"13.0932","3046.98","12.6005","0.25201","392.8"
"13.1165","3047.06","12.6221","0.252442","393.5"
"13.1399","3047.38","12.6443","0.252886","394.2"
"13.1633","3048","12.6665","0.25333","394.9"
"13.1865","3048.09","12.6929","0.253858","395.6"
"13.2098","3048.39","12.7136","0.254272","396.3"
"13.2333","3048.96","12.7383","0.254766","397"
"13.2565","3048.86","12.7602","0.255204","397.7"
"13.2799","3049.29","12.7842","0.255684","398.4"
"13.3033","3050.14","12.8067","0.256134","399.1"
"13.3265","3049.9","12.8259","0.256518","399.8"
"13.3498","3050.18","12.8545","0.25709","400.5"
"13.3732","3050.61","12.8769","0.257538","401.2"
"13.3965","3050.64","12.8951","0.257902","401.9"
"13.4199","3051.34","12.9223","0.258446","402.6"
"13.4432","3051.74","12.9435","0.25887","403.3"
"13.4665","3051.54","12.9687","0.259374","404"
"13.4899","3052.13","12.9944","0.259888","404.7"
"13.5132","3052.34","13.015","0.2603","405.4"
"13.5365","3052.75","13.0394","0.260788","406.1"
"13.5598","3052.88","13.0565","0.26113","406.8"
"13.5833","3053.41","13.0823","0.261646","407.5"
"13.6065","3053.66","13.1075","0.26215","408.2"
"13.6298","3053.87","13.1264","0.262528","408.9"
"13.6533","3054.14","13.156","0.26312","409.6"
"13.6765","3054.47","13.179","0.26358","410.3"
"13.6998","3054.54","13.2005","0.26401","411"
"13.7233","3054.93","13.2257","0.264514","411.7"
"13.7466","3055.14","13.2477","0.264954","412.4"
"13.7698","3055.46","13.268","0.26536","413.1"
"13.7932","3055.66","13.2925","0.26585","413.8"
"13.8166","3055.97","13.3142","0.266284","414.5"
"13.8399","3056.29","13.341","0.26682","415.2"
"13.8633","3056.78","13.3603","0.267206","415.9"
"13.8866","3056.74","13.3848","0.267696","416.6"
"13.9098","3056.9","13.4069","0.268138","417.3"
"13.9332","3057.43","13.4288","0.268576","418"
"13.9566","3057.63","13.4521","0.269042","418.7"
"13.9798","3057.91","13.4784","0.269568","419.4"
"14.0033","3058.37","13.4985","0.26997","420.1"
"14.0266","3058.77","13.5202","0.270404","420.8"
"14.0498","3058.61","13.5446","0.270892","421.5"
"14.0732","3059.09","13.5673","0.271346","422.2"
"14.0966","3059.17","13.589","0.27178","422.9"
"14.1198","3059.45","13.6081","0.272162","423.6"
"14.1433","3060.15","13.6352","0.272704","424.3"
"14.1665","3060.18","13.6502","0.273004","425"
"14.1898","3060.42","13.6704","0.273408","425.7"
"14.2132","3061.14","13.6961","0.273922","426.4"
"14.2365","3061.02","13.7228","0.274456","427.1"
"14.2599","3061.19","13.7393","0.274786","427.8"
"14.2832","3061.73","13.7656","0.275312","428.5"
"14.3066","3061.74","13.7842","0.275684","429.2"
"14.3298","3062.06","13.8056","0.276112","429.9"
"14.3532","3062.42","13.8253","0.276506","430.6"
"14.3766","3062.79","13.8494","0.276988","431.3"
"14.3999","3062.82","13.8787","0.277574","432"
"14.4232","3063.49","13.8934","0.277868","432.7"
"14.4466","3063.82","13.9131","0.278262","433.4"
"14.4699","3063.71","13.9411","0.278822","434.1"
"14.4932","3063.91","13.9604","0.279208","434.8"
"14.5166","3064.06","13.9848","0.279696","435.5"
"14.5399","3064.66","14.0057","0.280114","436.2"
"14.5632","3064.99","14.0317","0.280634","436.9"
"14.5865","3064.74","14.05","0.281","437.6"
"14.6099","3065.19","14.0724","0.281448","438.3"
"14.6332","3065.73","14.0967","0.281934","439"
"14.6566","3065.96","14.1197","0.282394","439.7"
"14.6799","3066.25","14.1371","0.282742","440.4"
"14.7032","3066.42","14.1588","0.283176","441.1"
"14.7266","3066.45","14.1828","0.283656","441.8"
"14.7499","3066.42","14.2055","0.28411","442.5"
"14.7732","3066.96","14.2306","0.284612","443.2"
"14.7966","3067.55","14.2483","0.284966","443.9"
"14.8199","3067.62","14.2717","0.285434","444.6"
"14.8432","3068.03","14.2917","0.285834","445.3"
"14.8666","3068.26","14.3195","0.28639","446"
"14.8899","3068.42","14.3331","0.286662","446.7"
"14.9132","3068.73","14.3565","0.28713","447.4"
"14.9366","3068.96","14.3842","0.287684","448.1"
"14.9599","3069.16","14.4003","0.288006","448.8"
"14.9832","3069.33","14.4231","0.288462","449.5"
"15.0066","3069.67","14.4471","0.288942","450.2"
"15.0298","3069.84","14.4705","0.28941","450.9"
"15.0532","3070.12","14.4939","0.289878","451.6"
"15.0766","3070.67","14.5091","0.290182","452.3"
"15.0999","3070.55","14.534","0.290582","453"
"15.1232","3071.15","14.5562","0.291124","453.7"
"15.1466","3071.56","14.582","0.29164","454.4"
"15.1699","3071.54","14.5998","0.291996","455.1"
"15.1932","3071.52","14.6286","0.292572","455.8"
"15.2166","3072.08","14.6442","0.292884","456.5"
"15.2399","3072.12","14.6691","0.293382","457.2"
"15.2632","3072.45","14.6856","0.293712","457.9"
"15.2866","3072.67","14.7108","0.294216","458.6"
"15.3098","3072.43","14.7309","0.294618","459.3"
"15.3333","3073.05","14.7573","0.295146","460"
"15.3566","3073.55","14.7758","0.295516","460.7"
"15.3798","3073.44","14.8031","0.296062","461.4"
"15.4033","3073.94","14.8151","0.296302","462.1"
"15.4266","3073.87","14.8441","0.296882","462.8"
"15.4498","3073.89","14.8623","0.297246","463.5"
"15.4732","3074.4","14.8863","0.297726","464.2"
"15.4966","3074.59","14.9122","0.298244","464.9"
"15.5199","3074.76","14.9323","0.298646","465.6"
"15.5432","3075.11","14.9554","0.299108","466.3"
"15.5666","3075.35","14.9737","0.299474","467"
"15.5899","3075.61","15.0013","0.300026","467.7"
"15.6132","3075.58","15.0126","0.300252","468.4"
"15.6366","3075.81","15.0467","0.300934","469.1"
"15.6598","3075.94","15.0614","0.301228","469.8"
"15.6833","3076.59","15.0866","0.301732","470.5"
"15.7066","3076.84","15.1056","0.302112","471.2"
"15.7298","3076.8","15.127","0.30254","471.9"
"15.7532","3077.08","15.1552","0.303104","472.6"
"15.7766","3077.43","15.1727","0.303454","473.3"
"15.7999","3077.56","15.1937","0.303874","474"
"15.8232","3077.77","15.2165","0.30433","474.7"
"15.8466","3078.03","15.2393","0.304786","475.4"
"15.8699","3078.01","15.2647","0.305294","476.1"
"15.8932","3078.19","15.2794","0.305588","476.8"
"15.9165","3078.64","15.3058","0.306116","477.5"
"15.9399","3078.88","15.3313","0.306626","478.2"
"15.9632","3078.99","15.3502","0.307004","478.9"
"15.9866","3079.01","15.3703","0.307346","479.6"
"16.0099","3079.43","15.3974","0.307948","480.3"
"16.0332","3079.64","15.4182","0.308364","481"
"16.0566","3080.06","15.4388","0.308776","481.7"
"16.0798","3079.93","15.4619","0.309238","482.4"
"16.1032","3079.98","15.4804","0.309608","483.1"
"16.1266","3080.83","15.5037","0.310074","483.8"
"16.1498","3080.48","15.5252","0.310504","484.5"
"16.1732","3080.64","15.5484","0.310968","485.2"
"16.1966","3081.03","15.5694","0.311388","485.9"
"16.2199","3080.96","15.5904","0.311808","486.6"
"16.2432","3081.32","15.6198","0.312396","487.3"
"16.2666","3081.46","15.6386","0.312772","488"
"16.2899","3081.76","15.6599","0.313198","488.7"
"16.3132","3081.64","15.6831","0.313662","489.4"
"16.3366","3081.86","15.705","0.3141","490.1"
"16.3599","3082.18","15.7266","0.314532","490.8"
"16.3832","3082.63","15.7499","0.314998","491.5"
"16.4066","3082.88","15.7676","0.315352","492.2"
"16.4299","3082.84","15.794","0.31588","492.9"
"16.4532","3083.04","15.8132","0.316264","493.6"
"16.4766","3083.72","15.8344","0.316688","494.3"
"16.4998","3083.47","15.8647","0.317294","495"
"16.5232","3083.82","15.8825","0.31765","495.7"
"16.5466","3084.02","15.903","0.31806","496.4"
"16.5699","3084.06","15.9282","0.318564","497.1"
"16.5932","3084.35","15.9461","0.318922","497.8"
"16.6166","3084.75","15.9707","0.319414","498.5"
"16.6399","3084.98","15.9967","0.319934","499.2"
"16.6632","3084.95","16.0128","0.320256","499.9"
"16.6866","3085.3","16.0399","0.320798","500.6"
"16.7099","3085.41","16.0607","0.321214","501.3"
"16.7332","3085.59","16.0849","0.321698","502"
"16.7566","3085.77","16.1065","0.32213","502.7"
"16.7799","3086.03","16.1315","0.32263","503.4"
"16.8032","3086.27","16.1533","0.323066","504.1"
"16.8266","3086.53","16.1791","0.323582","504.8"
"16.8499","3086.81","16.2001","0.324002","505.5"
"16.8731","3086.56","16.2237","0.324474","506.2"
"16.8966","3086.84","16.2488","0.324976","506.9"
"16.9199","3087.12","16.2702","0.325404","507.6"
"16.9432","3087.2","16.2923","0.325846","508.3"
"16.9666","3087.66","16.3184","0.326368","509"
"16.9899","3087.61","16.338","0.32676","509.7"
"17.0132","3087.85","16.3621","0.327242","510.4"
"17.0366","3088.26","16.3881","0.327762","511.1"
"17.0599","3088.33","16.4101","0.328202","511.8"
"17.0832","3088.47","16.4313","0.328626","512.5"
"17.1065","3088.89","16.4561","0.329122","513.2"
"17.1299","3088.91","16.4789","0.329578","513.9"
"17.1532","3089.1","16.5","0.33","514.6"
"17.1766","3089.54","16.5232","0.330464","515.3"
"17.1999","3089.29","16.5466","0.330932","516"
"17.2231","3089.34","16.5709","0.331418","516.7"
"17.2466","3089.67","16.5928","0.331856","517.4"
"17.27","3090.25","16.6154","0.332308","518.1"
"17.2932","3089.82","16.6391","0.332782","518.8"
"17.3165","3090.08","16.661","0.33322","519.5"
"17.3399","3090.22","16.6851","0.333702","520.2"
"17.3632","3090.65","16.7091","0.334182","520.9"
"17.3866","3090.89","16.7294","0.334588","521.6"
"17.4099","3091.18","16.7548","0.335096","522.3"
"17.4332","3091.28","16.7729","0.335458","523"
"17.4565","3091.46","16.7993","0.335986","523.7"
"17.4799","3091.63","16.8216","0.336432","524.4"
"17.5032","3091.81","16.8451","0.336902","525.1"
"17.5266","3092.15","16.8696","0.337392","525.8"
"17.5499","3091.95","16.8909","0.337818","526.5"
"17.5732","3091.88","16.9159","0.338318","527.2"
"17.5965","3092.58","16.9365","0.33873","527.9"
"17.62","3092.9","16.9634","0.339268","528.6"
"17.6432","3092.72","16.9844","0.339688","529.3"
"17.6665","3093.26","17.0071","0.340142","530"
"17.69","3093.19","17.0305","0.34061","530.7"
"17.7132","3093.13","17.0522","0.341044","531.4"
"17.7365","3093.56","17.0721","0.341442","532.1"
"17.7599","3094.07","17.1049","0.341892","532.8"
"17.7832","3093.81","17.1254","0.342508","533.5"
"17.8066","3094.14","17.1457","0.342914","534.2"
"17.8299","3094.29","17.1686","0.343372","534.9"
"17.8532","3094.45","17.195","0.3439","535.6"
"17.8765","3094.82","17.2125","0.34425","536.3"
"17.8999","3094.89","17.2355","0.34471","537"
"17.9232","3094.83","17.2608","0.345216","537.7"
"17.9465","3094.97","17.2829","0.345658","538.4"
"17.9699","3095.44","17.3039","0.346078","539.1"
"17.9932","3095.38","17.3231","0.346462","539.8"
"18.0165","3095.88","17.3476","0.346952","540.5"
"18.0399","3096.03","17.369","0.34738","541.2"
"18.0632","3096.12","17.3909","0.347818","541.9"
"18.0865","3096.3","17.4144","0.348288","542.6"
"18.1099","3096.23","17.437","0.34874","543.3"
"18.1332","3096.37","17.4563","0.349126","544"
"18.1565","3096.51","17.4786","0.349572","544.7"
"18.1799","3096.5","17.501","0.35002","545.4"
"18.2032","3096.48","17.5255","0.35051","546.1"
"18.2266","3097.15","17.5442","0.350884","546.8"
"18.2499","3097.25","17.5706","0.351412","547.5"
"18.2732","3097.2","17.5877","0.351754","548.2"
"18.2966","3097.65","17.6118","0.352236","548.9"
"18.3199","3097.78","17.633","0.35266","549.6"
"18.3432","3097.48","17.6581","0.353162","550.3"
"18.3665","3097.99","17.6797","0.353594","551"
"18.3899","3098.23","17.6977","0.353954","551.7"
"18.4132","3098.54","17.7225","0.35445","552.4"
"18.4365","3098.77","17.7463","0.354926","553.1"
"18.4599","3098.86","17.7676","0.355352","553.8"
"18.4832","3098.72","17.7884","0.355768","554.5"
"18.5066","3098.9","17.8118","0.356236","555.2"
"18.5299","3099.32","17.8321","0.356642","555.9"
"18.5532","3099.21","17.8533","0.357066","556.6"
"18.5766","3099.51","17.879","0.35758","557.3"
"18.5999","3099.57","17.9029","0.358058","558"
"18.6232","3099.7","17.9206","0.358412","558.7"
"18.6466","3100.01","17.9419","0.358838","559.4"
"18.6699","3100.12","17.9663","0.359326","560.1"
"18.6932","3099.94","17.9885","0.35977","560.8"
"18.7165","3100.36","18.0108","0.360216","561.5"
"18.7399","3100.73","18.0373","0.360746","562.2"
"18.7632","3101.01","18.0583","0.361166","562.9"
"18.7865","3101.08","18.0775","0.36155","563.6"
"18.8099","3101.07","18.0946","0.361892","564.3"
"18.8332","3101.21","18.1243","0.362486","565"
"18.8565","3101.42","18.1439","0.362878","565.7"
"18.8799","3101.79","18.1679","0.363358","566.4"
"18.9032","3101.77","18.1895","0.36379","567.1"
"18.9266","3101.86","18.2127","0.364254","567.8"
"18.9499","3102.59","18.2296","0.364592","568.5"
"18.9732","3102.49","18.2522","0.365044","569.2"
"18.9965","3102.44","18.2765","0.36553","569.9"
"19.0199","3102.86","18.2978","0.365956","570.6"
"19.0432","3102.78","18.3202","0.366404","571.3"
"19.0666","3103.02","18.3441","0.366882","572"
"19.0899","3103.47","18.3666","0.367332","572.7"
"19.1132","3103.61","18.385","0.3677","573.4"
"19.1365","3103.66","18.4092","0.368184","574.1"
"19.1599","3104","18.4326","0.368652","574.8"
"19.1832","3103.83","18.4521","0.369042","575.5"
"19.2065","3103.82","18.473","0.36946","576.2"
"19.23","3104.4","18.4986","0.369972","576.9"
"19.2532","3104.35","18.5215","0.37043","577.6"
"19.2765","3104.19","18.5441","0.370882","578.3"
"19.2999","3104.54","18.5692","0.371384","579"
"19.3232","3104.78","18.5899","0.371798","579.7"
"19.3465","3104.68","18.612","0.37224","580.4"
"19.37","3105.29","18.6358","0.372716","581.1"
"19.3932","3105.1","18.6585","0.37317","581.8"
"19.4165","3105.08","18.678","0.37356","582.5"
"19.4399","3105.58","18.7026","0.374052","583.2"
"19.4632","3105.74","18.728","0.37456","583.9"
"19.4865","3105.71","18.7525","0.37505","584.6"
"19.5099","3106.01","18.7769","0.375538","585.3"
"19.5332","3106.13","18.7987","0.375974","586"
"19.5565","3106.44","18.8278","0.376556","586.7"
"19.5799","3106.91","18.844","0.37688","587.4"
"19.6032","3106.47","18.8663","0.377326","588.1"
"19.6265","3106.89","18.8933","0.377866","588.8"
"19.6499","3107.21","18.9155","0.37831","589.5"
"19.6732","3107.27","18.9385","0.37877","590.2"
"19.6965","3107.38","18.9604","0.379208","590.9"
"19.7199","3107.63","18.9834","0.379668","591.6"
"19.7432","3107.44","19.008","0.38016","592.3"
"19.7665","3107.77","19.0298","0.380596","593"
"19.79","3108.2","19.0569","0.381138","593.7"
"19.8132","3107.99","19.0809","0.381618","594.4"
"19.8365","3108.15","19.1034","0.382068","595.1"
"19.8599","3108.14","19.1279","0.382558","595.8"
"19.8833","3108.47","19.151","0.38302","596.5"
"19.9065","3108.63","19.173","0.38346","597.2"
"19.9299","3108.88","19.1941","0.383882","597.9"
"19.9532","3108.6","19.2239","0.384478","598.6"
"19.9765","3108.98","19.2396","0.384792","599.3"
"19.9999","3109.11","19.2677","0.385354","600"
"20.0233","3109.46","19.2911","0.385822","600.7"
"20.0465","3109.26","19.3202","0.386404","601.4"
"20.0699","3109.5","19.3376","0.386752","602.1"
"20.0933","3109.81","19.3642","0.387284","602.8"
"20.1165","3109.92","19.3892","0.387784","603.5"
"20.1399","3110.1","19.4125","0.38825","604.2"
"20.1633","3110.35","19.4442","0.388884","604.9"
"20.1865","3110.13","19.462","0.38924","605.6"
"20.2099","3110.43","19.4905","0.38981","606.3"
"20.2333","3110.66","19.5083","0.390166","607"
"20.2565","3110.72","19.5324","0.390648","607.7"
"20.2799","3110.88","19.5622","0.391244","608.4"
"20.3032","3111.06","19.5777","0.391554","609.1"
"20.3265","3111.14","19.599","0.39198","609.8"
"20.3499","3111.26","19.6298","0.392596","610.5"
"20.3732","3111.51","19.6595","0.39319","611.2"
"20.3965","3111.33","19.6823","0.393646","611.9"
"20.4199","3111.67","19.7056","0.394112","612.6"
"20.4433","3111.99","19.7308","0.394616","613.3"
"20.4665","3111.87","19.7575","0.39515","614"
"20.4899","3112.09","19.7811","0.395622","614.7"
"20.5133","3112.37","19.804","0.39608","615.4"
"20.5365","3111.23","19.83","0.3966","616.1"
"20.5599","3111.89","19.8458","0.396916","616.8"
"20.5833","3111.96","19.884","0.39768","617.5"
"20.6065","3111.81","19.8979","0.397958","618.2"
"20.6299","3112.59","19.925","0.3985","618.9"
"20.6532","3112.41","19.944","0.39888","619.6"
"20.6766","3112.53","19.9776","0.399552","620.3"
"20.6999","3112.86","19.9991","0.399982","621"
"20.7232","3112.86","20.0125","0.40025","621.7"
"20.7466","3112.91","20.05","0.401","622.4"
"20.7699","3113.11","20.0732","0.401464","623.1"
"20.7932","3113.24","20.0903","0.401806","623.8"
"20.8165","3113.15","20.1234","0.402468","624.5"
"20.8398","3113.88","20.1445","0.40289","625.2"
"20.8633","3113.59","20.1677","0.403354","625.9"
"20.8865","3113.59","20.1857","0.403714","626.6"
"20.9099","3113.96","20.2128","0.404256","627.3"
"20.9333","3113.97","20.2377","0.404754","628"
"20.9565","3113.71","20.2589","0.405178","628.7"
"20.9798","3113.86","20.282","0.40564","629.4"
"21.0032","3113.88","20.3105","0.40621","630.1"
"21.0266","3113.96","20.3352","0.406704","630.8"
"21.0499","3114.13","20.358","0.40716","631.5"
"21.0732","3112.12","20.3822","0.407644","632.2"
"21.0965","3112.19","20.4022","0.408044","632.9"
"21.1199","3112.67","20.4248","0.408496","633.6"
"21.1432","3112.72","20.4469","0.408938","634.3"
"21.1665","3112.93","20.4755","0.40951","635"
"21.1899","3111.65","20.5045","0.41009","635.7"
"21.2133","3111.85","20.5219","0.410438","636.4"
"21.2365","3112.27","20.5475","0.41095","637.1"
"21.2599","3112.43","20.5686","0.411372","637.8"
"21.2833","3112.53","20.5907","0.411814","638.5"
"21.3065","3112.69","20.6137","0.412274","639.2"
"21.3299","3112.68","20.6473","0.412946","639.9"
"21.3533","3112.86","20.6639","0.413278","640.6"
"21.3765","3112.87","20.6795","0.41359","641.3"
"21.3999","3112.61","20.7065","0.41413","642"
"21.4232","3112.96","20.728","0.41456","642.7"
"21.4465","3112.55","20.7493","0.414986","643.4"
"21.4699","3112.58","20.7668","0.415336","644.1"
"21.4932","3110.95","20.7927","0.415854","644.8"
"21.5165","3109.3","20.8096","0.416192","645.5"
"21.5399","3109.16","20.8297","0.416594","646.2"
"21.5633","3109.55","20.8503","0.417006","646.9"
"21.5866","3109.74","20.8698","0.417396","647.6"
"21.6099","3109.62","20.8856","0.417712","648.3"
"21.6333","3109.44","20.9106","0.418212","649"
"21.6565","3108.96","20.9244","0.418488","649.7"
"21.6799","3107","20.9473","0.418946","650.4"
"21.7032","3106.75","20.9609","0.419218","651.1"
"21.7265","3106.62","20.9834","0.419668","651.8"
"21.7499","3106.49","21.0005","0.42001","652.5"
"21.7733","3106.61","21.0147","0.420294","653.2"
"21.7965","3106.09","21.0317","0.420634","653.9"
"21.8199","3106.01","21.0567","0.421134","654.6"
"21.8432","3105.75","21.0693","0.421386","655.3"
"21.8665","3105.05","21.0893","0.421786","656"
"21.8899","3104.125","21.1094","0.422188","656.7"
"21.9132","3102.2","21.1261","0.422522","657.4"
"21.9365","3101.63","21.1392","0.422784","658.1"
"21.9599","3098.53","21.1577","0.423154","658.8"
"21.9832","3097.2","21.1688","0.423376","659.5"
"22.0066","3092.96","21.1893","0.423786","660.2"
"22.0299","3091.81","21.198","0.42396","660.9"
"22.0532","3088.33","21.2127","0.424254","661.6"
"22.0766","3087.11","21.2251","0.424502","662.3"
"22.0998","3086.09","21.2348","0.424696","663"
"22.1233","3084.82","21.254","0.42508","663.7"
"22.1465","3083.45","21.2613","0.425226","664.4"
"22.1699","3082.45","21.2736","0.425472","665.1"
"22.1933","3077.14","21.2845","0.42569","665.8"
"22.2165","3074.11","21.2982","0.425964","666.5"
"22.2399","3072.04","21.3067","0.426134","667.2"
"22.2633","3070.22","21.3214","0.426428","667.9"
"22.2865","3067.28","21.3367","0.426734","668.6"
"22.3099","3058.26","21.3478","0.426956","669.3"
"22.3333","3039.02","21.3611","0.427222","670"
"22.3566","2921.35","21.378","0.42756","670.7"
"22.3798","2872.14","21.3878","0.427756","671.4"
"22.4032","2845.33","21.4035","0.42807","672.1"
"22.4266","2827.72","21.4141","0.428282","672.8"
"22.4498","2810.53","21.4376","0.428752","673.5"
"22.4733","2770.92","21.4391","0.428782","674.2"
"22.4966","2737.53","21.4496","0.428992","674.9"
"22.5198","2701.05","21.4594","0.429188","675.6"
"22.5432","2639.85","21.4642","0.429284","676.3"
"22.5665","2537.39","21.4637","0.429274","677"
"22.5784","332.121","21.4636","0.429272","677.348"