File: experimental_data/tensile_specimen_test_data/tensile_test_data/20250310/SSS 1 03-10-25 15 32 05 下午/数采：横梁, … - (实时值)1.csv
"文件路径: C:\Users\Lenovo\Desktop\Wayne\SSS 1 03-10-25 15 32 05 下午\数采：横梁, … - (实时值).csv   "
"试验: MTS EM 拉伸试验-W"
"试验运行: SSS 1"
"日期: 2025/3/10 15:01:34"
""
""
"横梁 ","力 ","应变 ","应力 ","时间 "
"mm","N","mm/mm","N/mm²","sec"
"0.00405198","15.1863","3.08108e-05","0.778783","0.152"
"0.0245913","80.6177","0.000188806","4.134239","0.752"
"0.0445718","145.615","0.000342502","7.46743","1.352"
"0.0645988","210.444","0.000496914","10.792","1.952"
"0.0845793","273.385","0.000650251","14.0198","2.552"
"0.10456","335.252","0.000804305","17.1924","3.152"
"0.12454","395.811","0.000957643","20.298","3.752"
"0.144567","454.56","0.0011117","23.3108","4.352"
"0.164594","512.031","0.00126575","26.258","4.952"
"0.184621","568.598","0.00141981","29.1589","5.552"
"0.204602","623.806","0.0015735","31.9901","6.152"
"0.224582","677.691","0.0017272","34.7534","6.752"
"0.244563","730.296","0.00188089","37.4511","7.352"
"0.264543","781.815","0.00203459","40.0931","7.952"
"0.28457","830.722","0.00218864","42.6011","8.552"
"0.304597","878.474","0.0023427","45.0499","9.152"
"0.324624","924.307","0.00249675","47.40038","9.752"
"0.344605","966.482","0.0026508","49.5632","10.352"
"0.364538","1005.03","0.00280378","51.5402","10.952"
"0.384565","1040.05","0.00295784","53.3359","11.552"
"0.404546","1070.43","0.00311189","54.8938","12.152"
"0.424573","1099.55","0.00326559","56.3873","12.752"
"0.444647","1126.17","0.00342","57.7523","13.352"
"0.46458","1150.88","0.00357334","59.0195","13.952"
"0.484607","1173.55","0.00372739","60.1818","14.552"
"0.504541","1194.75","0.00388073","61.26902","15.152"
"0.524568","1214.61","0.00403478","62.2875","15.752"
"0.544549","1234.01","0.00418848","63.2827","16.352"
"0.564622","1252.75","0.00434289","64.2434","16.952"
"0.584556","1270.19","0.00449659","65.138","17.552"
"0.60463","1287.16","0.00465064","66.00834","18.152"
"0.624564","1303.14","0.00480434","66.8275","18.752"
"0.644544","1318.74","0.00495767","67.6277","19.352"
"0.664571","1333.81","0.00511173","68.4003","19.952"
"0.684552","1348.02","0.00526542","69.12936","20.552"
"0.704579","1362.33","0.00541948","69.863","21.152"
"0.724606","1375.61","0.00557389","70.544","21.752"
"0.744586","1388.64","0.00572723","71.2122","22.352"
"0.764613","1401.25","0.00588128","71.859","22.952"
"0.784547","1413.57","0.00603498","72.4906","23.552"
"0.804528","1425.26","0.00618832","73.0903","24.152"
"0.824601","1432.73","0.00634273","73.4735","24.752"
"0.844535","1445.84","0.00649642","74.14568","25.352"
"0.864655","1457.22","0.00665084","74.729","25.952"
"0.884636","1467.83","0.00680453","75.2736","26.552"
"0.904616","1478.21","0.00695823","75.80568","27.152"
"0.924503","1487.98","0.00711156","76.3069","27.752"
"0.944577","1497.72","0.00726562","76.80632","28.352"
"0.964511","1507.16","0.00741931","77.29004","28.952"
"0.984631","1516.42","0.00757373","77.76536","29.552"
"1.00461","1525.47","0.00772742","78.229","30.152"
"1.02459","1534.24","0.00788112","78.679","30.752"
"1.04457","1542.48","0.00803481","79.10176","31.352"
"1.06455","1550.45","0.00818851","79.5102","31.952"
"1.08453","1558.74","0.00834221","79.9355","32.552"
"1.10461","1566.76","0.00849662","80.3464","33.152"
"1.12459","1574.32","0.00865031","80.73436","33.752"
"1.14461","1582.06","0.00880437","81.1314","34.352"
"1.16459","1589.33","0.00895806","81.50408","34.952"
"1.18458","1596.38","0.00911176","81.86572","35.552"
"1.20456","1603.28","0.00926581","82.2196","36.152"
"1.22454","1610.23","0.00941915","82.5761","36.752"
"1.24461","1617.11","0.00957356","82.9285","37.352"
"1.26459","1623.73","0.00972726","83.2683","37.952"
"1.28462","1630.45","0.00988131","83.6126","38.552"
"1.3046","1636.51","0.010035","83.9233","39.152"
"1.32458","1642.75","0.0101891","84.24368","39.752"
"1.34451","1648.77","0.0103424","84.5522","40.352"
"1.36459","1654.83","0.0104965","84.863","40.952"
"1.38452","1660.92","0.0106502","85.1753","41.552"
"1.40459","1666.28","0.0108046","85.4503","42.152"
"1.42462","1672.63","0.0109583","85.7758","42.752"
"1.4446","1677.82","0.011112","86.0418","43.352"
"1.46458","1683.52","0.0112657","86.3341","43.952"
"1.48456","1688.8","0.0114193","86.6054","44.552"
"1.50454","1694.17","0.011573","86.8806","45.152"
"1.52457","1699.45","0.0117271","87.1514","45.752"
"1.5446","1704.59","0.0118811","87.4148","46.352"
"1.56462","1710.11","0.0120352","87.6981","46.952"
"1.5846","1714.87","0.0121889","87.94204","47.552"
"1.60454","1719.92","0.0123426","88.201","48.152"
"1.62456","1724.73","0.0124963","88.4476","48.752"
"1.64454","1729.67","0.0126503","88.7011","49.352"
"1.66457","1734.86","0.012804","88.9672","49.952"
"1.6846","1739.78","0.0129585","89.2193","50.552"
"1.70463","1744.39","0.0131121","89.45612","51.152"
"1.72456","1749","0.0132655","89.6925","51.752"
"1.74459","1753.49","0.0134195","89.9224","52.352"
"1.76452","1758.29","0.0135729","90.1689","52.952"
"1.78459","1753.23","0.0137273","89.9094","53.552"
"1.80457","1763.14","0.013881","90.4172","54.152"
"1.8246","1769","0.014035","90.7181","54.752"
"1.84458","1774.1","0.0141891","90.97928","55.352"
"1.86461","1778.38","0.0143428","91.19888","55.952"
"1.88454","1782.48","0.0144961","91.4091","56.552"
"1.90457","1787.1","0.0146502","91.64612","57.152"
"1.92455","1791.35","0.0148039","91.864","57.752"
"1.94458","1795.52","0.0149579","92.0777","58.352"
"1.96465","1800.14","0.0151123","92.3149","58.952"
"1.98459","1802.51","0.015266","92.4364","59.552"
"2.00461","1807.72","0.0154197","92.7034","60.152"
"2.02459","1811.63","0.0155734","92.9043","60.752"
"2.04453","1815.78","0.0157268","93.1171","61.352"
"2.06455","1820.03","0.0158812","93.3351","61.952"
"2.08458","1823.99","0.0160352","93.5381","62.552"
"2.10461","1828.07","0.0161889","93.7473","63.152"
"2.12468","1832.16","0.0163433","93.9571","63.752"
"2.14457","1835.93","0.0164963","94.1502","64.352"
"2.1646","1839.97","0.0166504","94.3574","64.952"
"2.18453","1843.85","0.0168037","94.55636","65.552"
"2.20456","1847.72","0.0169578","94.7546","66.152"
"2.22458","1789.99","0.0171122","91.7946","66.752"
"2.24461","1817.69","0.0172662","93.215","67.352"
"2.26459","1841.95","0.0174196","94.4591","67.952"
"2.28457","1852.81","0.0175736","95.0158","68.552"
"2.30455","1858.52","0.017727","95.3088","69.152"
"2.32453","1862.63","0.0178807","95.5193","69.752"
"2.34456","1866.77","0.0180351","95.732","70.352"
"2.36459","1870.56","0.0181891","95.9264","70.952"
"2.38461","1874.38","0.0183428","96.1219","71.552"
"2.40459","1877.94","0.0184965","96.30444","72.152"
"2.42453","1881.44","0.0186502","96.4843","72.752"
"2.44455","1884.97","0.0188043","96.6649","73.352"
"2.46454","1888.57","0.018958","96.8495","73.952"
"2.48456","1892.03","0.0191117","97.0273","74.552"
"2.50464","1895.89","0.0192661","97.225","75.152"
"2.52457","1899.12","0.0194194","97.3906","75.752"
"2.54464","1902.68","0.0195738","97.5731","76.352"
"2.56453","1905.88","0.0197272","97.73764","76.952"
"2.58456","1909.77","0.0198812","97.93672","77.552"
"2.60454","1913.09","0.0200345","98.1071","78.152"
"2.62457","1916.61","0.020189","98.2877","78.752"
"2.64459","1919.87","0.0203427","98.455","79.352"
"2.66462","1923.42","0.0204967","98.6369","79.952"
"2.6846","1926.77","0.0206504","98.8089","80.552"
"2.70458","1930.1","0.0208041","98.97964","81.152"
"2.72451","1933.44","0.0209578","99.1507","81.752"
"2.74454","1936.76","0.0211115","99.3208","82.352"
"2.76457","1940.11","0.0212655","99.4929","82.952"
"2.78459","1943.13","0.02142","99.6478","83.552"
"2.80458","1946.33","0.0215737","99.81192","84.152"
"2.8246","1949.97","0.0217277","99.9986","84.752"
"2.84458","1952.92","0.021881","100.15","85.352"
"2.86452","1956.49","0.0220347","100.333","85.952"
"2.88459","1959.34","0.0221888","100.479","86.552"
"2.90457","1962.78","0.0223425","100.656","87.152"
"2.92464","1966.35","0.0224973","100.838","87.752"
"2.94458","1969.26","0.0226506","100.988","88.352"
"2.96461","1972.41","0.0228043","101.149","88.952"
"2.98454","1975.4","0.022958","101.302","89.552"
"3.00457","1978.49","0.0231117","101.461","90.152"
"3.02455","1981.72","0.0232654","101.626","90.752"
"3.04462","1984.93","0.0234198","101.791","91.352"
"3.0646","1988.1","0.0235735","101.954","91.952"
"3.08463","1991.25","0.0237275","102.115","92.552"
"3.10456","1994.12","0.0238809","102.263","93.152"
"3.12454","1997.32","0.0240346","102.426","93.752"
"3.14457","1999.96","0.0241886","102.562","94.352"
"3.16455","2003.04","0.0243427","102.72","94.952"
"3.18458","2006.14","0.0244964","102.879","95.552"
"3.2046","2009.23","0.0246504","103.037","96.152"
"3.22463","2012.1","0.0248045","103.185","96.752"
"3.24461","2014.94","0.0249582","103.33","97.352"
"3.26459","2018.03","0.0251119","103.489","97.952"
"3.28453","2020.69","0.0252656","103.625","98.552"
"3.30455","2023.65","0.0254196","103.777","99.152"
"3.32458","2026.56","0.0255733","103.926","99.752"
"3.34461","2029.55","0.0257274","104.08","100.352"
"3.36463","2032.33","0.0258814","104.222","100.952"
"3.38461","2035.28","0.0260351","104.373","101.552"
"3.40455","2037.98","0.0261885","104.5116","102.152"
"3.42457","2040.73","0.0263425","104.653","102.752"
"3.44451","2043.54","0.0264959","104.797","103.352"
"3.46463","2046.29","0.0266506","104.9378","103.952"
"3.48461","2048.92","0.0268043","105.073","104.552"
"3.50459","2051.72","0.0269584","105.217","105.152"
"3.52457","2054.69","0.0271121","105.369","105.752"
"3.54455","2057.16","0.0272654","105.495","106.352"
"3.56453","2059.72","0.0274191","105.627","106.952"
"3.58456","2062.8","0.0275732","105.785","107.552"
"3.60459","2065.39","0.0277276","105.917","108.152"
"3.62461","2068.22","0.0278816","106.062","108.752"
"3.64459","2070.98","0.028035","106.204","109.352"
"3.66457","2073.21","0.0281887","106.318","109.952"
"3.68455","2076.02","0.0283424","106.462","110.552"
"3.70453","2078.46","0.0284964","106.587","111.152"
"3.72456","2080.96","0.0286501","106.716","111.752"
"3.74463","2083.82","0.0288045","106.863","112.352"
"3.76462","2086.19","0.0289586","106.984","112.952"
"3.7846","2088.74","0.0291119","107.115","113.552"
"3.80458","2091.3","0.029266","107.246","114.152"
"3.82451","2093.68","0.0294189","107.368","114.752"
"3.84458","2096.46","0.0295737","107.511","115.352"
"3.86452","2098.83","0.0297271","107.632","115.952"
"3.88459","2101.49","0.0298811","107.769","116.552"
"3.90462","2103.96","0.0300352","107.895","117.152"
"3.9246","2106.21","0.0301889","108.011","117.752"
"3.94458","2108.77","0.0303426","108.142","118.352"
"3.96456","2110.93","0.0304963","108.253","118.952"
"3.98454","2113.53","0.0306499","108.386","119.552"
"4.00457","2115.85","0.030804","108.505","120.152"
"4.02459","2118.53","0.0309581","108.642","120.752"
"4.04462","2120.84","0.0311121","108.761","121.352"
"4.0646","2123.26","0.0312658","108.885","121.952"
"4.08458","2125.71","0.0314195","109.011","122.552"
"4.10452","2127.78","0.0315732","109.117","123.152"
"4.12454","2130","0.0317269","109.231","123.752"
"4.14462","2132.45","0.0318813","109.357","124.352"
"4.1646","2134.85","0.032035","109.479","124.952"
"4.18462","2137.14","0.0321894","109.597","125.552"
"4.20456","2139.21","0.0323424","109.703","126.152"
"4.22463","2141.48","0.0324968","109.819","126.752"
"4.24452","2143.27","0.0326498","109.911","127.352"
"4.26455","2145.77","0.0328038","110.04","127.952"
"4.28457","2148.15","0.0329583","110.161","128.552"
"4.3046","2150.47","0.0331123","110.281","129.152"
"4.32463","2152.65","0.033266","110.392","129.752"
"4.34456","2154.66","0.0334197","110.495","130.352"
"4.36454","2156.71","0.033573","110.6","130.952"
"4.38457","2159.12","0.0337271","110.724","131.552"
"4.40455","2161.29","0.0338808","110.835","132.152"
"4.42458","2163.23","0.0340352","110.935","132.752"
"4.4446","2165.7","0.0341889","111.061","133.352"
"4.46463","2167.51","0.0343429","111.154","133.952"
"4.48456","2169.72","0.0344966","111.268","134.552"
"4.50454","2171.84","0.0346503","111.376","135.152"
"4.52452","2173.75","0.034804","111.474","135.752"
"4.54455","2175.45","0.0349581","111.561","136.352"
"4.56458","2177.96","0.0351121","111.69","136.952"
"4.58456","2179.78","0.0352658","111.784","137.552"
"4.60468","2182.14","0.0354203","111.904","138.152"
"4.62457","2183.79","0.0355732","111.989","138.752"
"4.64459","2185.85","0.0357273","112.095","139.352"
"4.66453","2187.56","0.0358806","112.183","139.952"
"4.68455","2189.68","0.0360347","112.291","140.552"
"4.70458","2191.4","0.0361887","112.379","141.152"
"4.72461","2193.34","0.0363428","112.479","141.752"
"4.74459","2195.62","0.0364965","112.596","142.352"
"4.76462","2197.35","0.0366505","112.685","142.952"
"4.7845","2199.04","0.0368039","112.771","143.552"
"4.80453","2200.17","0.0369576","112.829","144.152"
"4.82456","2202.34","0.0371116","112.941","144.752"
"4.84458","2204.54","0.0372657","113.053","145.352"
"4.86461","2206.43","0.0374201","113.15","145.952"
"4.88459","2208.42","0.0375734","113.253","146.552"
"4.90457","2210.08","0.0377271","113.338","147.152"
"4.9246","2211.44","0.0378812","113.407","147.752"
"4.94453","2213.48","0.0380349","113.512","148.352"
"4.96456","2215.4","0.0381886","113.61","148.952"
"4.98463","2217.46","0.0383433","113.716","149.552"
"5.00461","2219.21","0.0384967","113.806","150.152"
"5.02464","2221.1","0.0386507","113.902","150.752"
"5.04453","2222.34","0.0388041","113.966","151.352"
"5.06456","2224.22","0.0389581","114.063","151.952"
"5.08454","2226.05","0.0391115","114.156","152.552"
"5.10461","2227.58","0.0392659","114.235","153.152"
"5.12459","2229.78","0.0394196","114.348","153.752"
"5.14466","2230.88","0.039574","114.404","154.352"
"5.1646","2232.47","0.0397273","114.485","154.952"
"5.18458","2234.26","0.039881","114.578","155.552"
"5.20456","2235.99","0.0400347","114.666","156.152"
"5.22454","2237.52","0.0401884","114.745","156.752"
"5.24457","2239.3","0.0403425","114.836","157.352"
"5.26459","2240.76","0.0404965","114.911","157.952"
"5.28462","2242.57","0.0406506","115.004","158.552"
"5.30465","2244.06","0.0408046","115.08","159.152"
"5.32453","2245.69","0.040958","115.164","159.752"
"5.34456","2247.16","0.0411117","115.239","160.352"
"5.36454","2248.86","0.0412657","115.326","160.952"
"5.38457","2250.01","0.0414194","115.385","161.552"
"5.40464","2251.7","0.0415738","115.472","162.152"
"5.42458","2253.42","0.0417275","115.56","162.752"
"5.44465","2255.13","0.0418816","115.648","163.352"
"5.46454","2256.4","0.0420345","115.713","163.952"
"5.48456","2257.91","0.0421886","115.79","164.552"
"5.5045","2259.08","0.0423423","115.85","165.152"
"5.52462","2261.06","0.0424967","115.952","165.752"
"5.5446","2262.46","0.0426504","116.024","166.352"
"5.56463","2263.85","0.0428045","116.095","166.952"
"5.58456","2265.23","0.0429582","116.166","167.552"
"5.60454","2266.53","0.0431115","116.232","168.152"
"5.62457","2268.1","0.0432655","116.313","168.752"
"5.64455","2269.49","0.0434192","116.384","169.352"
"5.66457","2271.15","0.0435733","116.469","169.952"
"5.68465","2272.87","0.0437277","116.557","170.552"
"5.70458","2273.89","0.043881","116.61","171.152"
"5.72461","2275.44","0.0440351","116.689","171.752"
"5.74454","2276.46","0.0441884","116.742","172.352"
"5.76452","2277.64","0.0443425","116.802","172.952"
"5.7846","2279.2","0.0444965","116.882","173.552"
"5.80458","2280.55","0.0446502","116.952","174.152"
"5.82465","2282.19","0.0448047","117.035","174.752"
"5.84458","2283.39","0.0449583","117.097","175.352"
"5.86461","2284.68","0.0451124","117.163","175.952"
"5.88455","2285.59","0.0452654","117.21","176.552"
"5.90457","2287.4","0.0454194","117.302","177.152"
"5.92455","2288.58","0.0455731","117.363","177.752"
"5.94458","2289.67","0.0457275","117.419","178.352"
"5.96461","2291.02","0.0458812","117.488","178.952"
"5.98459","2292.5","0.0460353","117.564","179.552"
"6.00457","2294.1","0.046189","117.646","180.152"
"6.02455","2294.67","0.0463423","117.675","180.752"
"6.04453","2296.13","0.046496","117.75","181.352"
"6.0646","2297.28","0.0466504","117.809","181.952"
"6.08458","2298.66","0.0468041","117.88","182.552"
"6.10466","2299.9","0.0469585","117.944","183.152"
"6.12459","2300.9","0.0471119","117.995","183.752"
"6.14457","2302.25","0.0472656","118.064","184.352"
"6.16455","2303.32","0.0474196","118.119","184.952"
"6.18453","2304.61","0.047573","118.185","185.552"
"6.20461","2305.55","0.0477274","118.233","186.152"
"6.22463","2306.75","0.0478814","118.2948","186.752"
"6.24461","2308.3","0.0480355","118.374","187.352"
"6.26459","2309.26","0.0481888","118.424","187.952"
"6.28457","2310.29","0.0483429","118.476","188.552"
"6.30451","2311.29","0.0484962","118.528","189.152"
"6.32458","2312.63","0.0486503","118.597","189.752"
"6.34456","2313.87","0.048804","118.66","190.352"
"6.36459","2314.96","0.0489584","118.716","190.952"
"6.38462","2316.32","0.0491121","118.786","191.552"
"6.4046","2317.17","0.0492658","118.829","192.152"
"6.42458","2317.9","0.0494195","118.866","192.752"
"6.44456","2319.16","0.0495732","118.931","193.352"
"6.46454","2320.56","0.0497269","119.003","193.952"
"6.48456","2321.59","0.0498809","119.056","194.552"
"6.50459","2322.73","0.050035","119.114","195.152"
"6.52462","2323.67","0.050189","119.162","195.752"
"6.5446","2324.62","0.0503427","119.211","196.352"
"6.56458","2325.74","0.0504964","119.269","196.952"
"6.58456","2326.48","0.0506501","119.307","197.552"
"6.60454","2327.59","0.0508042","119.363","198.152"
"6.62457","2328.92","0.0509582","119.432","198.752"
"6.64459","2329.76","0.0511123","119.475","199.352"
"6.66462","2330.98","0.0512663","119.537","199.952"
"6.68456","2331.82","0.0514197","119.58","200.552"
"6.70458","2332.99","0.0515737","119.641","201.152"
"6.72452","2333.85","0.0517267","119.684","201.752"
"6.74459","2334.83","0.0518811","119.735","202.352"
"6.76457","2335.74","0.0520348","119.782","202.952"
"6.7846","2336.7","0.0521892","119.831","203.552"
"6.80462","2337.77","0.0523429","119.885","204.152"
"6.82456","2338.26","0.0524966","119.911","204.752"
"6.84454","2338.99","0.0526499","119.948","205.352"
"6.86452","2340.03","0.052804","120.001","205.952"
"6.88455","2341.02","0.0529577","120.052","206.552"
"6.90457","2342","0.0531117","120.102","207.152"
"6.9246","2343.21","0.0532662","120.165","207.752"
"6.94458","2344.36","0.0534199","120.223","208.352"
"6.96456","2344.98","0.0535735","120.255","208.952"
"6.98459","2346.05","0.0537272","120.31","209.552"
"7.00452","2346.47","0.0538809","120.332","210.152"
"7.0246","2347.49","0.054035","120.384","210.752"
"7.04458","2348.62","0.054189","120.442","211.352"
"7.0646","2349.07","0.0543427","120.465","211.952"
"7.08463","2350.1","0.0544972","120.518","212.552"
"7.10456","2351.07","0.0546501","120.567","213.152"
"7.12459","2351.9","0.0548042","120.61","213.752"
"7.14453","2352.59","0.0549575","120.646","214.352"
"7.16455","2353.69","0.0551119","120.702","214.952"
"7.18458","2354.28","0.0552656","120.732","215.552"
"7.20461","2355.17","0.0554197","120.778","216.152"
"7.22459","2355.77","0.0555734","120.809","216.752"
"7.24457","2356.68","0.0557274","120.855","217.352"
"7.26455","2357.7","0.0558808","120.908","217.952"
"7.28453","2358.09","0.0560345","120.927","218.552"
"7.30456","2359.29","0.0561885","120.9894","219.152"
"7.32458","2360.07","0.0563429","121.029","219.752"
"7.34461","2360.98","0.0564966","121.076","220.352"
"7.36464","2361.72","0.0566507","121.1138","220.952"
"7.38457","2362.43","0.056804","121.15","221.552"
"7.4046","2363.07","0.0569581","121.183","222.152"
"7.42453","2363.7","0.0571118","121.215","222.752"
"7.44456","2364.64","0.0572655","121.264","223.352"
"7.46463","2365.58","0.0574202","121.312","223.952"
"7.48457","2366.43","0.0575736","121.355","224.552"
"7.50464","2367.26","0.0577276","121.398","225.152"
"7.52453","2367.29","0.057881","121.4","225.752"
"7.54455","2368.13","0.058035","121.4428","226.352"
"7.56453","2368.72","0.0581887","121.473","226.952"
"7.58461","2369.71","0.0583428","121.524","227.552"
"7.60459","2370.3","0.0584965","121.554","228.152"
"7.62461","2371.19","0.0586505","121.6","228.752"
"7.6446","2371.77","0.0588042","121.629","229.352"
"7.66458","2372.41","0.0589579","121.662","229.952"
"7.68456","2372.92","0.0591116","121.688","230.552"
"7.70454","2138.52","0.0592653","109.668","231.152"
"7.72456","2164.14","0.0594194","110.982","231.752"
"7.74459","2189.71","0.0595738","112.293","232.352"
"7.76457","2212.37","0.0597275","113.455","232.952"
"7.7846","2235.38","0.0598815","114.635","233.552"
"7.80458","2256.91","0.0600349","115.739","234.152"
"7.82456","2276.86","0.0601886","116.762","234.752"
"7.84459","2294.4","0.0603426","117.661","235.352"
"7.86457","2310.32","0.0604963","118.478","235.952"
"7.88464","2324.11","0.0606507","119.185","236.552"
"7.90457","2335.23","0.0608044","119.755","237.152"
"7.9246","2343.72","0.0609585","120.191","237.752"
"7.94458","2349.15","0.0611118","120.469","238.352"
"7.96456","2352.97","0.0612655","120.665","238.952"
"7.98454","2356.03","0.0614192","120.822","239.552"
"8.00462","2358.26","0.0615736","120.936","240.152"
"8.0246","2360.27","0.0617273","121.04","240.752"
"8.04462","2361.46","0.0618817","121.1","241.352"
"8.06456","2362.59","0.0620351","121.158","241.952"
"8.08454","2363.63","0.0621884","121.212","242.552"
"8.10456","2364.71","0.0623425","121.267","243.152"
"8.12455","2365.65","0.0624961","121.316","243.752"
"8.14457","2366.57","0.0626502","121.363","244.352"
"8.16465","2367.66","0.0628046","121.419","244.952"
"8.18458","2368.55","0.0629583","121.464","245.552"
"8.20461","2369.28","0.063112","121.501","246.152"
"8.22454","2369.98","0.0632657","121.537","246.752"
"8.24452","2370.97","0.063419","121.588","247.352"
"8.26459","2371.92","0.0635734","121.637","247.952"
"8.28458","2372.84","0.0637275","121.684","248.552"
"8.3046","2373.57","0.0638812","121.722","249.152"
"8.32463","2374.26","0.0640353","121.757","249.752"
"8.34461","2375.14","0.0641889","121.802","250.352"
"8.36454","2375.92","0.0643423","121.842","250.952"
"8.38457","2376.71","0.0644963","121.883","251.552"
"8.4045","2377.2","0.06465","121.908","252.152"
"8.42462","2378.13","0.0648044","121.955","252.752"
"8.44456","2379.03","0.0649581","122.002","253.352"
"8.46459","2379.85","0.0651122","122.044","253.952"
"8.48461","2380.56","0.0652659","122.08","254.552"
"8.50455","2381.4","0.0654192","122.123","255.152"
"8.52453","2382.11","0.0655729","122.159","255.752"
"8.54455","2382.92","0.065727","122.201","256.352"
"8.56458","2383.76","0.0658814","122.244","256.952"
"8.58461","2384.46","0.0660354","122.28","257.552"
"8.60459","2385.47","0.0661891","122.332","258.152"
"8.62457","2386","0.0663425","122.359","258.752"
"8.64455","2386.55","0.0664962","122.387","259.352"
"8.66453","2387.16","0.0666502","122.418","259.952"
"8.68456","2387.98","0.0668039","122.461","260.552"
"8.70463","2388.71","0.0669583","122.498","261.152"
"8.72466","2389.23","0.0671124","122.525","261.752"
"8.74459","2390.14","0.0672657","122.571","262.352"
"8.76457","2390.53","0.0674198","122.591","262.952"
"8.78451","2391.03","0.0675728","122.617","263.552"
"8.80458","2391.67","0.0677275","122.65","264.152"
"8.82456","2392.36","0.0678809","122.685","264.752"
"8.84459","2393.32","0.0680353","122.735","265.352"
"8.86461","2393.9","0.068189","122.764","265.952"
"8.88459","2394.58","0.0683427","122.799","266.552"
"8.90457","2394.99","0.0684964","122.82","267.152"
"8.92451","2395.64","0.0686501","122.854","267.752"
"8.94454","2396.15","0.0688038","122.88","268.352"
"8.96461","2396.85","0.0689582","122.915","268.952"
"8.98459","2397.42","0.0691119","122.945","269.552"
"9.00462","2398.15","0.0692659","122.9818","270.152"
"9.0246","2398.76","0.0694196","123.013","270.752"
"9.04458","2399.04","0.0695733","123.028","271.352"
"9.06456","2399.85","0.069727","123.069","271.952"
"9.08459","2400.28","0.0698811","123.091","272.552"
"9.10457","2400.82","0.0700351","123.119","273.152"
"9.12459","2401.58","0.0701892","123.158","273.752"
"9.14462","2402.23","0.0703429","123.191","274.352"
"9.16455","2402.36","0.0704962","123.198","274.952"
"9.18463","2403.26","0.0706506","123.244","275.552"
"9.20451","2403.51","0.0708036","123.257","276.152"
"9.22454","2404.17","0.070958","123.291","276.752"
"9.24457","2404.57","0.0711117","123.311","277.352"
"9.2646","2405.33","0.0712661","123.35","277.952"
"9.28462","2406.13","0.0714198","123.391","278.552"
"9.3046","2406.45","0.0715735","123.408","279.152"
"9.32454","2407.22","0.0717269","123.447","279.752"
"9.34456","2407.37","0.0718809","123.455","280.352"
"9.36454","2407.96","0.0720346","123.485","280.952"
"9.38457","2408.42","0.0721887","123.509","281.552"
"9.40465","2409.22","0.0723431","123.55","282.152"
"9.42462","2409.8","0.0724968","123.579","282.752"
"9.44456","2410.15","0.0726505","123.597","283.352"
"9.46454","2400.17","0.0728042","123.086","283.952"
"9.48457","2402.46","0.0729579","123.203","284.552"
"9.50459","2406.02","0.0731119","123.386","285.152"
"9.52462","2407.53","0.073266","123.463","285.752"
"9.5446","2408.96","0.0734197","123.537","286.352"
"9.56463","2410.01","0.0735741","123.59","286.952"
"9.58456","2410.32","0.073727","123.606","287.552"
"9.60459","2410.84","0.0738811","123.633","288.152"
"9.62452","2411.51","0.0740348","123.667","288.752"
"9.64455","2412.07","0.0741888","123.696","289.352"
"9.66458","2412.66","0.0743425","123.7264","289.952"
"9.6846","2413.03","0.0744966","123.745","290.552"
"9.70458","2413.56","0.0746503","123.772","291.152"
"9.72461","2413.92","0.0748043","123.791","291.752"
"9.74455","2414.22","0.0749577","123.806","292.352"
"9.76453","2414.74","0.0751117","123.833","292.952"
"9.78455","2415.06","0.0752654","123.849","293.552"
"9.80458","2415.55","0.0754195","123.8746","294.152"
"9.82461","2416.25","0.0755739","123.9104","294.752"
"9.84459","2416.47","0.0757276","123.921","295.352"
"9.86457","2417.01","0.0758809","123.949","295.952"
"9.88455","2417.2","0.076035","123.959","296.552"
"9.90453","2417.78","0.0761883","123.989","297.152"
"9.92456","2417.68","0.0763424","123.983","297.752"
"9.94463","2418.52","0.0764968","124.027","298.352"
"9.96461","2418.75","0.0766505","124.039","298.952"
"9.98464","2419.42","0.0768045","124.073","299.552"
"10.0045","2419.57","0.0769579","124.081","300.152"
"10.0246","2419.56","0.0771119","124.08","300.752"
"10.0445","2420","0.0772653","124.102","301.352"
"10.0646","2420.63","0.0774197","124.135","301.952"
"10.0846","2421.13","0.0775734","124.16","302.552"
"10.1047","2421.68","0.0777278","124.189","303.152"
"10.1245","2421.74","0.0778811","124.192","303.752"
"10.1446","2421.87","0.0780348","124.1986","304.352"
"10.1646","2422.09","0.0781885","124.21","304.952"
"10.1845","2421.81","0.0783422","124.195","305.552"
"10.2046","2422.26","0.0784966","124.218","306.152"
"10.2246","2422.73","0.0786503","124.243","306.752"
"10.2446","2423.12","0.0788044","124.263","307.352"
"10.2646","2423.53","0.0789584","124.283","307.952"
"10.2845","2423.81","0.0791118","124.298","308.552"
"10.3046","2424.08","0.0792655","124.312","309.152"
"10.3246","2424.72","0.0794195","124.345","309.752"
"10.3446","2425.01","0.0795732","124.36","310.352"
"10.3646","2425.32","0.0797276","124.376","310.952"
"10.3846","2425.72","0.0798813","124.396","311.552"
"10.4046","2426.04","0.0800354","124.412","312.152"
"10.4246","2426.25","0.0801887","124.423","312.752"
"10.4446","2426.6","0.0803424","124.441","313.352"
"10.4645","2426.98","0.0804961","124.46","313.952"
"10.4846","2427.6","0.0806505","124.493","314.552"
"10.5046","2427.85","0.0808042","124.505","315.152"
"10.5246","2428.45","0.0809583","124.536","315.752"
"10.5446","2428.65","0.081112","124.546","316.352"
"10.5645","2428.9","0.0812653","124.559","316.952"
"10.5846","2429.31","0.0814194","124.58","317.552"
"10.6045","2429.48","0.0815731","124.589","318.152"
"10.6246","2429.93","0.0817271","124.612","318.752"
"10.6446","2430.54","0.0818815","124.643","319.352"
"10.6646","2430.86","0.0820352","124.659","319.952"
"10.6846","2430.9","0.0821889","124.662","320.552"
"10.7045","2431.18","0.0823426","124.676","321.152"
"10.7246","2431.45","0.0824963","124.69","321.752"
"10.7446","2431.77","0.0826504","124.706","322.352"
"10.7646","2432.25","0.0828041","124.731","322.952"
"10.7846","2432.56","0.0829585","124.747","323.552"
"10.8046","2432.88","0.0831118","124.763","324.152"
"10.8246","2433.32","0.0832659","124.786","324.752"
"10.8445","2433.26","0.0834192","124.783","325.352"
"10.8646","2434","0.0835732","124.821","325.952"
"10.8845","2434.15","0.0837269","124.828","326.552"
"10.9046","2434.63","0.0838814","124.853","327.152"
"10.9246","2434.81","0.0840351","124.862","327.752"
"10.9446","2435","0.0841887","124.872","328.352"
"10.9646","2435.24","0.0843428","124.884","328.952"
"10.9845","2435.74","0.0844961","124.91","329.552"
"11.0045","2435.71","0.0846498","124.908","330.152"
"11.0246","2436.16","0.0848042","124.931","330.752"
"11.0446","2436.33","0.0849579","124.94","331.352"
"11.0647","2436.95","0.0851124","124.972","331.952"
"11.0846","2437.17","0.0852657","124.983","332.552"
"11.1046","2437.61","0.0854197","125.006","333.152"
"11.1245","2437.85","0.0855734","125.018","333.752"
"11.1445","2437.84","0.0857268","125.017","334.352"
"11.1646","2438.48","0.0858812","125.05","334.952"
"11.1846","2438.72","0.0860352","125.063","335.552"
"11.2047","2439.11","0.0861893","125.082","336.152"
"11.2246","2439.23","0.0863426","125.089","336.752"
"11.2446","2439.5","0.0864967","125.102","337.352"
"11.2645","2439.93","0.08665","125.124","337.952"
"11.2846","2440.13","0.0868041","125.135","338.552"
"11.3046","2440.39","0.0869578","125.148","339.152"
"11.3246","2440.54","0.0871122","125.156","339.752"
"11.3446","2441.4","0.0872659","125.2","340.352"
"11.3646","2441.34","0.0874196","125.197","340.952"
"11.3846","2441.58","0.0875733","125.209","341.552"
"11.4046","2441.82","0.087727","125.221","342.152"
"11.4245","2441.95","0.0878807","125.228","342.752"
"11.4446","2442.51","0.0880351","125.257","343.352"
"11.4646","2442.75","0.0881888","125.269","343.952"
"11.4846","2442.99","0.0883428","125.282","344.552"
"11.5046","2443.21","0.0884965","125.293","345.152"
"11.5246","2443.46","0.0886502","125.3056","345.752"
"11.5446","2443.73","0.0888039","125.319","346.352"
"11.5646","2443.87","0.088958","125.327","346.952"
"11.5846","2443.98","0.089112","125.332","347.552"
"11.6046","2444.51","0.0892661","125.36","348.152"
"11.6246","2444.75","0.0894198","125.372","348.752"
"11.6446","2445","0.0895735","125.385","349.352"
"11.6646","2445.28","0.0897275","125.399","349.952"
"11.6845","2445.45","0.0898805","125.407","350.552"
"11.7046","2445.52","0.0900349","125.411","351.152"
"11.7246","2445.93","0.0901886","125.432","351.752"
"11.7446","2446.38","0.090343","125.456","352.352"
"11.7646","2446.6","0.0904967","125.467","352.952"
"11.7846","2446.83","0.0906504","125.479","353.552"
"11.8045","2446.89","0.0908041","125.481","354.152"
"11.8246","2447.29","0.0909578","125.502","354.752"
"11.8445","2447.36","0.0911115","125.505","355.352"
"11.8646","2447.63","0.0912656","125.519","355.952"
"11.8846","2448.05","0.09142","125.541","356.552"
"11.9046","2448.17","0.0915737","125.547","357.152"
"11.9246","2448.42","0.0917274","125.56","357.752"
"11.9446","2448.45","0.0918811","125.561","358.352"
"11.9645","2448.89","0.0920344","125.584","358.952"
"11.9845","2448.98","0.0921888","125.589","359.552"
"12.0046","2449.37","0.0923429","125.609","360.152"
"12.0246","2449.49","0.0924966","125.615","360.752"
"12.0447","2450.15","0.092651","125.6486","361.352"
"12.0646","2449.92","0.0928039","125.637","361.952"
"12.0846","2449.97","0.092958","125.639","362.552"
"12.1045","2450.37","0.0931113","125.66","363.152"
"12.1246","2450.55","0.0932658","125.6692","363.752"
"12.1446","2450.86","0.0934198","125.685","364.352"
"12.1646","2451.31","0.0935739","125.708","364.952"
"12.1846","2451.45","0.0937272","125.715","365.552"
"12.2046","2451.6","0.0938813","125.7232","366.152"
"12.2245","2451.82","0.0940346","125.734","366.752"
"12.2445","2451.87","0.0941883","125.737","367.352"
"12.2646","2452.15","0.0943423","125.751","367.952"
"12.2846","2448.17","0.0944964","125.547","368.552"
"12.3046","2449.67","0.0946504","125.624","369.152"
"12.3246","2450.52","0.0948045","125.668","369.752"
"12.3446","2450.96","0.0949578","125.69","370.352"
"12.3646","2451.6","0.0951119","125.723","370.952"
"12.3845","2451.65","0.0952656","125.725","371.552"
"12.4046","2451.92","0.0954193","125.74","372.152"
"12.4246","2452.47","0.0955741","125.768","372.752"
"12.4446","2452.65","0.0957274","125.777","373.352"
"12.4646","2453.15","0.0958818","125.803","373.952"
"12.4846","2453.23","0.0960348","125.806","374.552"
"12.5045","2453.31","0.0961885","125.811","375.152"
"12.5245","2453.26","0.0963425","125.808","375.752"
"12.5446","2453.48","0.0964966","125.82","376.352"
"12.5646","2453.87","0.0966503","125.84","376.952"
"12.5847","2454.41","0.0968047","125.867","377.552"
"12.6046","2454.88","0.096958","125.891","378.152"
"12.6246","2454.56","0.0971117","125.875","378.752"
"12.6445","2454.78","0.0972654","125.886","379.352"
"12.6645","2454.79","0.0974191","125.887","379.952"
"12.6846","2455.25","0.0975735","125.91","380.552"
"12.7046","2455.54","0.0977276","125.925","381.152"
"12.7246","2455.56","0.0978813","125.926","381.752"
"12.7446","2455.93","0.0980353","125.945","382.352"
"12.7646","2455.89","0.0981887","125.943","382.952"
"12.7846","2456.16","0.0983424","125.957","383.552"
"12.8046","2456.24","0.0984964","125.961","384.152"
"12.8246","2456.36","0.0986501","125.967","384.752"
"12.8446","2456.82","0.0988045","125.991","385.352"
"12.8646","2456.65","0.0989582","125.982","385.952"
"12.8846","2456.93","0.0991119","125.997","386.552"
"12.9046","2457.24","0.0992656","126.012","387.152"
"12.9246","2457.34","0.0994197","126.018","387.752"
"12.9445","2457.46","0.099573","126.024","388.352"
"12.9646","2457.81","0.0997274","126.041","388.952"
"12.9846","2457.89","0.0998811","126.045","389.552"
"13.0046","2458.11","0.100036","126.057","390.152"
"13.0246","2458.37","0.100189","126.07","390.752"
"13.0446","2458.65","0.100343","126.085","391.352"
"13.0645","2458.55","0.100496","126.08","391.952"
"13.0845","2458.85","0.10065","126.095","392.552"
"13.1046","2459.02","0.100804","126.104","393.152"
"13.1246","2459.15","0.100958","126.11","393.752"
"13.1446","2459.57","0.101112","126.132","394.352"
"13.1646","2459.59","0.101266","126.133","394.952"
"13.1845","2459.75","0.10142","126.141","395.552"
"13.2045","2459.7","0.101573","126.138","396.152"
"13.2246","2460.04","0.101727","126.156","396.752"
"13.2446","2460.3","0.101881","126.169","397.352"
"13.2646","2460.57","0.102035","126.183","397.952"
"13.2846","2460.81","0.102189","126.196","398.552"
"13.3046","2460.48","0.102343","126.178","399.152"
"13.3245","2460.63","0.102496","126.186","399.752"
"13.3446","2460.92","0.10265","126.201","400.352"
"13.3645","2461.09","0.102804","126.21","400.952"
"13.3846","2461.52","0.102958","126.232","401.552"
"13.4046","2461.52","0.103112","126.232","402.152"
"13.4246","2461.58","0.103266","126.235","402.752"
"13.4446","2461.81","0.10342","126.247","403.352"
"13.4645","2461.96","0.103573","126.254","403.952"
"13.4845","2462.15","0.103727","126.264","404.552"
"13.5045","2462.28","0.103881","126.271","405.152"
"13.5246","2462.44","0.104035","126.279","405.752"
"13.5446","2462.83","0.104189","126.299","406.352"
"13.5646","2462.92","0.104343","126.303","406.952"
"13.5846","2463.26","0.104497","126.321","407.552"
"13.6045","2463.15","0.10465","126.315","408.152"
"13.6245","2463.16","0.104804","126.3158","408.752"
"13.6446","2463.38","0.104958","126.327","409.352"
"13.6646","2463.73","0.105112","126.345","409.952"
"13.6847","2463.61","0.105266","126.339","410.552"
"13.7046","2463.93","0.10542","126.355","411.152"
"13.7246","2464.05","0.105574","126.361","411.752"
"13.7445","2464.1","0.105727","126.364","412.352"
"13.7646","2464.3","0.105881","126.374","412.952"
"13.7846","2464.16","0.106035","126.367","413.552"
"13.8046","2464.52","0.106189","126.386","414.152"
"13.8246","2464.72","0.106343","126.396","414.752"
"13.8446","2464.8","0.106496","126.4","415.352"
"13.8646","2464.91","0.10665","126.406","415.952"
"13.8845","2464.81","0.106804","126.4","416.552"
"13.9045","2465.1","0.106958","126.416","417.152"
"13.9246","2465.19","0.107112","126.42","417.752"
"13.9446","2465.56","0.107266","126.439","418.352"
"13.9646","2465.62","0.10742","126.442","418.952"
"13.9846","2465.84","0.107573","126.453","419.552"
"14.0046","2465.79","0.107727","126.451","420.152"
"14.0246","2465.76","0.107881","126.449","420.752"
"14.0446","2466.08","0.108035","126.466","421.352"
"14.0646","2466.13","0.108189","126.468","421.952"
"14.0846","2466.17","0.108343","126.47","422.552"
"14.1046","2466.51","0.108497","126.488","423.152"
"14.1245","2466.33","0.10865","126.4786","423.752"
"14.1446","2466.2","0.108804","126.472","424.352"
"14.1645","2466.39","0.108958","126.482","424.952"
"14.1845","2466.67","0.109112","126.496","425.552"
"14.2046","2466.99","0.109266","126.512","426.152"
"14.2246","2467.05","0.10942","126.515","426.752"
"14.2446","2467.41","0.109574","126.534","427.352"
"14.2646","2467.11","0.109727","126.519","427.952"
"14.2845","2466.91","0.109881","126.508","428.552"
"14.3046","2466.62","0.110035","126.493","429.152"
"14.3245","2466.56","0.110188","126.49","429.752"
"14.3446","2466.79","0.110343","126.502","430.352"
"14.3646","2467","0.110497","126.513","430.952"
"14.3846","2467.23","0.110651","126.525","431.552"
"14.4046","2467.13","0.110804","126.52","432.152"
"14.4245","2467.02","0.110958","126.514","432.752"
"14.4446","2466.94","0.111112","126.51","433.352"
"14.4645","2467.33","0.111266","126.53","433.952"
"14.4846","2467.45","0.11142","126.536","434.552"
"14.5046","2467.45","0.111573","126.536","435.152"
"14.5247","2468.15","0.111728","126.572","435.752"
"14.5446","2467.69","0.111881","126.548","436.352"
"14.5646","2467.84","0.112035","126.556","436.952"
"14.5845","2467.72","0.112188","126.55","437.552"
"14.6046","2467.29","0.112343","126.528","438.152"
"14.6246","2467.38","0.112497","126.532","438.752"
"14.6446","2467.6","0.112651","126.543","439.352"
"14.6646","2467.83","0.112804","126.556","439.952"
"14.6846","2467.53","0.112958","126.54","440.552"
"14.7045","2467.58","0.113111","126.543","441.152"
"14.7245","2467.62","0.113266","126.544","441.752"
"14.7445","2467.79","0.11342","126.553","442.352"
"14.7646","2467.94","0.113573","126.561","442.952"
"14.7846","2467.95","0.113727","126.561","443.552"
"14.8046","2467.13","0.113881","126.519","444.152"
"14.8246","2466.95","0.114035","126.51","444.752"
"14.8446","2466.96","0.114189","126.511","445.352"
"14.8646","2467.37","0.114342","126.532","445.952"
"14.8846","2467.33","0.114496","126.53","446.552"
"14.9046","2467.86","0.114651","126.557","447.152"
"14.9246","2467.65","0.114804","126.546","447.752"
"14.9446","2467.75","0.114958","126.551","448.352"
"14.9646","2467.51","0.115112","126.539","448.952"
"14.9846","2467.71","0.115266","126.549","449.552"
"15.0045","2467.69","0.115419","126.548","450.152"
"15.0246","2467.6","0.115573","126.544","450.752"
"15.0446","2467.89","0.115727","126.558","451.352"
"15.0647","2468.24","0.115882","126.577","451.952"
"15.0846","2468.23","0.116035","126.576","452.552"
"15.1046","2468.21","0.116189","126.575","453.152"
"15.1246","2468.03","0.116342","126.566","453.752"
"15.1445","2468.02","0.116496","126.565","454.352"
"15.1646","2468.27","0.11665","126.578","454.952"
"15.1846","2468.52","0.116804","126.5908","455.552"
"15.2046","2468.69","0.116958","126.6","456.152"
"15.2246","2468.68","0.117112","126.599","456.752"
"15.2445","2468.49","0.117266","126.589","457.352"
"15.2646","2468.24","0.117419","126.577","457.952"
"15.2846","2468.76","0.117573","126.603","458.552"
"15.3046","2468.79","0.117727","126.605","459.152"
"15.3246","2468.85","0.117881","126.608","459.752"
"15.3446","2468.78","0.118035","126.604","460.352"
"15.3646","2468.82","0.118189","126.606","460.952"
"15.3845","2468.77","0.118343","126.604","461.552"
"15.4046","2468.99","0.118497","126.615","462.152"
"15.4245","2468.81","0.11865","126.606","462.752"
"15.4446","2469.28","0.118805","126.63","463.352"
"15.4646","2468.61","0.118958","126.595","463.952"
"15.4846","2468.85","0.119112","126.608","464.552"
"15.5046","2468.73","0.119266","126.602","465.152"
"15.5245","2467.35","0.119419","126.531","465.752"
"15.5446","2466.01","0.119574","126.462","466.352"
"15.5645","2464.01","0.119727","126.359","466.952"
"15.5846","2458.79","0.119881","126.092","467.552"
"15.6046","2449.14","0.120035","125.597","468.152"
"15.6246","2447.36","0.120189","125.506","468.752"
"15.6446","2443.84","0.120343","125.325","469.352"
"15.6645","2440.43","0.120496","125.15","469.952"
"15.6846","2434.11","0.12065","124.826","470.552"
"15.7046","2430.43","0.120804","124.637","471.152"
"15.7246","2424.45","0.120958","124.331","471.752"
"15.7446","2424.04","0.121112","124.31","472.352"
"15.7646","2424.72","0.121266","124.345","472.952"
"15.7846","2425.37","0.12142","124.378","473.552"
"15.8045","2425.74","0.121573","124.397","474.152"
"15.8246","2425.41","0.121727","124.38","474.752"
"15.8445","2424.04","0.121881","124.31","475.352"
"15.8646","2417.92","0.122035","123.996","475.952"
"15.8846","2412.93","0.122189","123.74","476.552"
"15.9046","2401.21","0.122343","123.139","477.152"
"15.9246","2386.24","0.122497","122.371","477.752"
"15.9445","2379.37","0.12265","122.019","478.352"
"15.9645","2373.5","0.122804","121.718","478.952"
"15.9846","2345.69","0.122958","120.292","479.552"
"16.0046","2332.67","0.123112","119.624","480.152"
"16.0246","2321.58","0.123266","119.056","480.752"
"16.0446","2315.38","0.12342","118.737","481.352"
"16.0646","2303.09","0.123574","118.107","481.952"
"16.0846","2296.73","0.123727","117.781","482.552"
"16.1045","2285.21","0.123881","117.19","483.152"
"16.1246","2257.15","0.124035","115.751","483.752"
"16.1446","2221.18","0.124189","113.907","484.352"
"16.1647","2200.84","0.124343","112.864","484.952"
"16.1846","2182.07","0.124497","111.901","485.552"
"16.2046","2153.73","0.124651","110.448","486.152"
"16.2245","2112.79","0.124804","108.348","486.752"
"16.2446","2090.28","0.124958","107.194","487.352"
"16.2646","2069.24","0.125112","106.115","487.952"
"16.2846","2048.7","0.125266","105.062","488.552"
"16.3046","2034.9","0.12542","104.354","489.152"
"16.3246","2026.51","0.125573","103.924","489.752"
"16.3446","2021.39","0.125727","103.6608","490.352"
"16.3645","2003.29","0.125881","102.733","490.952"
"16.3845","1985.29","0.126034","101.81","491.552"
"16.4046","1969.45","0.126189","100.998","492.152"
"16.4246","1959.23","0.126343","100.473","492.752"
"16.4446","1947.78","0.126497","99.88608","493.352"
"16.4646","1940.79","0.126651","99.5276","493.952"
"16.4846","1937.32","0.126804","99.3497","494.552"
"16.5046","1934.69","0.126958","99.2148","495.152"
"16.5246","1931.68","0.127112","99.0607","495.752"
"16.5446","1929.65","0.127266","98.9566","496.352"
"16.5646","1927.83","0.12742","98.86304","496.952"
"16.5846","1918.14","0.127574","98.3664","497.552"
"16.6046","1908.41","0.127727","97.867","498.152"
"16.6246","1901.02","0.127881","97.4883","498.752"
"16.6445","1897.94","0.128034","97.3301","499.352"
"16.6646","1895.56","0.128189","97.2085","499.952"
"16.6846","1884.88","0.128342","96.6604","500.552"
"16.7046","1864.38","0.128497","95.6093","501.152"
"16.7246","1856.33","0.128651","95.19632","501.752"
"16.7446","1815.79","0.128804","93.1175","502.352"
"16.7645","1801.93","0.128958","92.4067","502.952"
"16.7846","1792.43","0.129112","91.9196","503.552"
"16.8045","1789.43","0.129266","91.7654","504.152"
"16.8246","1788.04","0.129419","91.6944","504.752"
"16.8446","1787.43","0.129574","91.663","505.352"
"16.8646","1786.9","0.129727","91.63572","505.952"
"16.8846","1786.43","0.129881","91.6119","506.552"
"16.9046","1786.26","0.130035","91.603","507.152"
"16.9245","1777.2","0.130189","91.1385","507.752"
"16.9445","1774.19","0.130343","90.9844","508.352"
"16.9646","1772.29","0.130497","90.8867","508.952"
"16.9846","1769.98","0.13065","90.7683","509.552"
"17.0047","1767.67","0.130805","90.6495","510.152"
"17.0246","1763.82","0.130958","90.4522","510.752"
"17.0446","1761.82","0.131112","90.3495","511.352"
"17.0645","1753.68","0.131265","89.9324","511.952"
"17.0846","1741.79","0.13142","89.3225","512.552"
"17.1046","1714.03","0.131574","87.8987","513.152"
"17.1246","1688.43","0.131728","86.58612","513.752"
"17.1446","1655.85","0.131881","84.9155","514.352"
"17.1646","1625.16","0.132035","83.3415","514.952"
"17.1845","1592.1","0.132188","81.6462","515.552"
"17.2046","906","0.132342","46.4615","516.152"
"17.2245","852.802","0.132497","43.7334","516.752"
"17.2446","852.297","0.132651","43.7075","517.352"
"17.2646","859.183","0.132804","44.06068","517.952"
"17.2846","867.181","0.132958","44.4708","518.552"
"17.3046","875.673","0.133112","44.9063","519.152"
"17.3246","882.684","0.133266","45.2658","519.752"
"17.3446","885.136","0.133419","45.39158","520.352"
"17.3646","885.483","0.133573","45.4094","520.952"
"17.3846","887.057","0.133728","45.4901","521.552"
"17.4046","888.338","0.133881","45.5558","522.152"
"17.4246","888.924","0.134035","45.5859","522.752"
"17.4446","888.677","0.134189","45.5732","523.352"
"17.4645","888.381","0.134343","45.558","523.952"
"17.4845","888.411","0.134496","45.55956","524.552"
"17.5046","881.597","0.13465","45.21012","525.152"
"17.5246","870.884","0.134804","44.6607","525.752"
"17.5446","834.277","0.134959","42.78342","526.352"
"17.5646","740.694","0.135112","37.9843","526.952"
"17.5846","667.946","0.135266","34.2537","527.552"
"17.6045","648.48","0.135419","33.2554","528.152"
"17.6245","642.998","0.135573","32.9743","528.752"
"17.6446","642.635","0.135727","32.9557","529.352"
"17.6646","643.157","0.135881","32.9824","529.952"
"17.6846","644.682","0.136035","33.0606","530.552"
"17.7046","646.673","0.136189","33.16271","531.152"
"17.7246","648.537","0.136342","33.25832","531.752"
"17.7446","650.056","0.136496","33.3362","532.352"
"17.7646","651.609","0.13665","33.4159","532.952"
"17.7846","649.925","0.136804","33.3295","533.552"
"17.8046","649.995","0.136959","33.3331","534.152"
"17.8246","649.381","0.137112","33.3016","534.752"
"17.8446","648.883","0.137266","33.2761","535.352"
"17.8646","647.919","0.137419","33.2266","535.952"
"17.8846","637.3","0.137573","32.6821","536.552"
"17.9045","633.526","0.137727","32.4885","537.152"
"17.9246","630.572","0.137881","32.337","537.752"
"17.9446","628.915","0.138035","32.2521","538.352"
"17.9646","628.478","0.138189","32.2297","538.952"
"17.9845","626.672","0.138343","32.13705","539.552"
"18.0045","625.725","0.138496","32.0885","540.152"
"18.0246","625.787","0.13865","32.0916","540.752"
"18.0445","625.648","0.138804","32.0845","541.352"
"18.0646","622.828","0.138958","31.9399","541.952"
"18.0846","622.7","0.139112","31.9334","542.552"
"18.1046","622.388","0.139266","31.9173","543.152"
"18.1246","621.302","0.13942","31.8617","543.752"
"18.1446","621.397","0.139573","31.8665","544.352"
"18.1646","621.157","0.139727","31.85423","544.952"
"18.1846","621.418","0.139881","31.8676","545.552"
"18.2046","618.846","0.140035","31.7357","546.152"
"18.2246","614.118","0.140189","31.4932","546.752"
"18.2446","609.907","0.140343","31.2773","547.352"
"18.2646","605.719","0.140497","31.0625","547.952"
"18.2845","603.06","0.14065","30.9261","548.552"
"18.3046","600.27","0.140804","30.7831","549.152"
"18.3245","598.614","0.140958","30.69817","549.752"
"18.3446","597.74","0.141112","30.6534","550.352"
"18.3646","596.775","0.141266","30.60384","550.952"
"18.3846","594.872","0.14142","30.5062","551.552"
"18.4046","593.794","0.141574","30.451","552.152"
"18.4245","592.874","0.141727","30.40378","552.752"
"18.4445","589.699","0.141881","30.241","553.352"
"18.4645","586.997","0.142035","30.1024","553.952"
"18.4846","586.445","0.142189","30.0741","554.552"
"18.5046","585.702","0.142343","30.036","555.152"
"18.5246","585.726","0.142496","30.0372","555.752"
"18.5446","585.394","0.14265","30.0202","556.352"
"18.5645","585.641","0.142804","30.0329","556.952"
"18.5846","585.945","0.142958","30.04845","557.552"
"18.6046","586.003","0.143112","30.0515","558.152"
"18.6246","584.126","0.143266","29.9552","558.752"
"18.6446","582.571","0.14342","29.8754","559.352"
"18.6646","582.64","0.143573","29.87899","559.952"
"18.6846","580.708","0.143727","29.7799","560.552"
"18.7045","580.373","0.143881","29.7627","561.152"
"18.7246","580.446","0.144035","29.76645","561.752"
"18.7446","580.769","0.144188","29.783","562.352"
"18.7646","580.239","0.144343","29.7559","562.952"
"18.7846","580.099","0.144497","29.7487","563.552"
"18.8046","580.081","0.14465","29.7477","564.152"
"18.8246","578.148","0.144804","29.6486","564.752"
"18.8445","576.983","0.144958","29.5889","565.352"
"18.8645","575.805","0.145111","29.5285","565.952"
"18.8846","573.364","0.145266","29.40326","566.552"
"18.9046","570.511","0.145419","29.257","567.152"
"18.9246","565.644","0.145574","29.0074","567.752"
"18.9446","563.679","0.145728","28.9066","568.352"
"18.9646","559.856","0.145881","28.7106","568.952"
"18.9846","558.149","0.146035","28.62303","569.552"
"19.0045","556.861","0.146189","28.557","570.152"
"19.0246","555.752","0.146343","28.5001","570.752"
"19.0446","553.944","0.146497","28.4074","571.352"
"19.0647","546.542","0.146651","28.0278","571.952"
"19.0845","545.228","0.146804","27.9604","572.552"
"19.1046","545.018","0.146958","27.9497","573.152"
"19.1245","544.921","0.147112","27.9447","573.752"
"19.1446","544.495","0.147266","27.9228","574.352"
"19.1646","544.628","0.14742","27.9296","574.952"
"19.1846","544.884","0.147574","27.9428","575.552"
"19.2046","545.195","0.147727","27.9587","576.152"
"19.2245","545.223","0.147881","27.9602","576.752"
"19.2445","545.476","0.148035","27.9731","577.352"
"19.2646","545.665","0.148189","27.9828","577.952"
"19.2845","545.88","0.148342","27.99386","578.552"
"19.3046","546.053","0.148497","28.0027","579.152"
"19.3246","545.979","0.148651","27.99891","579.752"
"19.3446","545.789","0.148804","27.9892","580.352"
"19.3646","545.562","0.148958","27.9775","580.952"
"19.3679","545.469","0.148984","27.9728","581.052"