File: experimental_data/tensile_specimen_test_data/tensile_test_data/2025_01_14_tensile_test/Test Run 3 01-14-25 16 46 25 下午/数采：横梁, … - (实时值).csv
"文件路径: C:\Users\Lenovo\Desktop\Test Run 3 01-14-25 16 46 25 下午\数采：横梁, … - (实时值).csv   "
"试验: MTS EM 拉伸试验（引伸计） 3"
"试验运行: Test Run 3"
"日期: 2025/1/14 16:26:39"
""
""
"横梁 ","力 ","时间 ","引伸计 "
"mm","N","sec","mm"
"0.00125751","20.5215","0.05","2.10754e-05"
"0.013134","65.6625","0.4","0.00364682"
"0.0249173","129.635","0.75","0.0081682"
"0.0366075","196.719","1.1","0.0122713"
"0.0482512","265.819","1.45","0.0161717"
"0.0598948","336.277","1.8","0.0198166"
"0.0716315","407.645","2.15","0.023306"
"0.0832752","478.869","2.5","0.0267144"
"0.0949188","549.381","2.85","0.0299619"
"0.106609","619.691","3.2","0.0330789"
"0.118206","688.141","3.55","0.0362051"
"0.129896","756.352","3.9","0.0391058"
"0.141586","824.725","4.25","0.0422091"
"0.153277","892.488","4.6","0.0452023"
"0.164967","959.134","4.95","0.0481429"
"0.17661","1024.89","5.3","0.0510246"
"0.188254","1090.5","5.65","0.0538665"
"0.199898","1154.92","6","0.0567278"
"0.211588","1218.93","6.35","0.0595001"
"0.223325","1283.19","6.7","0.0622835"
"0.234968","1345.88","7.05","0.0649934"
"0.246565","1407.45","7.4","0.0677698"
"0.258255","1469.25","7.75","0.0704894"
"0.269899","1529.77","8.1","0.0732133"
"0.281589","1590.31","8.45","0.0758796"
"0.293326","1650.29","8.8","0.0786057"
"0.30497","1708.9","9.15","0.0811879"
"0.316567","1766.52","9.5","0.0837731"
"0.32821","1823.5","9.85","0.0863983"
"0.339901","1879.52","10.2","0.08894"
"0.351591","1934.51","10.55","0.0914476"
"0.363281","1989.46","10.9","0.0939632"
"0.374971","2043.42","11.25","0.0964512"
"0.386615","2095.83","11.6","0.0988985"
"0.398212","2147.53","11.95","0.101328"
"0.409902","2198.23","12.3","0.103748"
"0.421592","2248.18","12.65","0.106155"
"0.433282","2296.9","13","0.108497"
"0.444926","2344.15","13.35","0.110924"
"0.456616","2389.85","13.7","0.113232"
"0.468213","2434.34","14.05","0.115566"
"0.479903","2477.91","14.4","0.117991"
"0.49164","2520.68","14.75","0.120326"
"0.503284","2562.54","15.1","0.12268"
"0.514974","2602.59","15.45","0.125051"
"0.526618","2641.35","15.8","0.127394"
"0.538215","2678.89","16.15","0.129746"
"0.549905","2715.5","16.5","0.132085"
"0.561595","2751.2","16.85","0.134494"
"0.573285","2785.59","17.2","0.136733"
"0.584975","2818.66","17.55","0.139074"
"0.596619","2850.19","17.9","0.141362"
"0.608263","2881.28","18.25","0.143592"
"0.619906","2911.12","18.6","0.145855"
"0.631597","2940.45","18.95","0.148098"
"0.643333","2969.39","19.3","0.150327"
"0.654977","2996.46","19.65","0.152531"
"0.666574","3022.26","20","0.154712"
"0.678264","3047.61","20.35","0.156865"
"0.689908","3071.56","20.7","0.158966"
"0.701551","3095.33","21.05","0.161096"
"0.713288","3119.32","21.4","0.163295"
"0.724978","3142.32","21.75","0.165437"
"0.736622","3164.43","22.1","0.167515"
"0.748266","3185.91","22.45","0.169573"
"0.759909","3207.28","22.8","0.1717"
"0.771599","3227.92","23.15","0.173809"
"0.783243","3248.29","23.5","0.175908"
"0.79498","3268","23.85","0.177951"
"0.806623","3286.86","24.2","0.17998"
"0.81822","3305.41","24.55","0.182026"
"0.829911","3324.3","24.9","0.184134"
"0.841601","3342.64","25.25","0.186186"
"0.853244","3360.61","25.6","0.188294"
"0.864981","3378.72","25.95","0.190455"
"0.876625","3395.7","26.3","0.192558"
"0.888268","3412.51","26.65","0.194635"
"0.899912","3429.08","27","0.196715"
"0.911602","3445.44","27.35","0.198837"
"0.923292","3461.82","27.7","0.20097"
"0.934983","3478.02","28.05","0.203093"
"0.946673","3493.49","28.4","0.205213"
"0.95827","3508.58","28.75","0.207355"
"0.969867","3523.85","29.1","0.209436"
"0.981557","3538.89","29.45","0.211599"
"0.993294","3553.37","29.8","0.213822"
"1.00494","3567.84","30.15","0.21595"
"1.01663","3581.98","30.5","0.218179"
"1.02827","3595.78","30.85","0.220279"
"1.03992","3609.53","31.2","0.222495"
"1.05156","3623.19","31.55","0.22474"
"1.0633","3636.85","31.9","0.226905"
"1.07499","3650.02","32.25","0.229182"
"1.08663","3662.85","32.6","0.231343"
"1.09827","3675.54","32.95","0.233577"
"1.10992","3687.94","33.3","0.235853"
"1.12156","3700.81","33.65","0.238195"
"1.13325","3712.7","34","0.240486"
"1.14494","3724.95","34.35","0.242829"
"1.15663","3737.18","34.7","0.245136"
"1.16827","3748.71","35.05","0.247443"
"1.17992","3760.5","35.4","0.249865"
"1.19156","3772.12","35.75","0.25217"
"1.20325","3783.49","36.1","0.254597"
"1.21499","3795.06","36.45","0.257014"
"1.22663","3805.63","36.8","0.259462"
"1.23823","3816.14","37.15","0.261862"
"1.24992","3826.95","37.5","0.26426"
"1.26156","3837.26","37.85","0.266717"
"1.27325","3847.38","38.2","0.26921"
"1.28499","3857.91","38.55","0.271727"
"1.29663","3868.23","38.9","0.274231"
"1.30828","3877.67","39.25","0.276705"
"1.31987","3887.39","39.6","0.279229"
"1.33161","3897.44","39.95","0.281851"
"1.3433","3906.83","40.3","0.284371"
"1.35494","3915.9","40.65","0.286936"
"1.36668","3925.48","41","0.289496"
"1.37828","3933.87","41.35","0.292132"
"1.38988","3942.37","41.7","0.294666"
"1.40157","3951.51","42.05","0.297269"
"1.41326","3960.31","42.4","0.29989"
"1.42495","3968.81","42.75","0.302562"
"1.43668","3977.6","43.1","0.305257"
"1.44828","3985.38","43.45","0.307868"
"1.45988","3993.13","43.8","0.310511"
"1.47157","4001.06","44.15","0.313239"
"1.4833","4009.36","44.5","0.315933"
"1.49499","4017.18","44.85","0.318624"
"1.50664","4025.12","45.2","0.321326"
"1.51828","4032.22","45.55","0.324022"
"1.52993","4039.06","45.9","0.326767"
"1.54152","4046.52","46.25","0.329583"
"1.55326","4054.43","46.6","0.33233"
"1.565","4061.74","46.95","0.335133"
"1.57664","4068.54","47.3","0.337867"
"1.58824","4075.36","47.65","0.340657"
"1.59993","4081.55","48","0.34342"
"1.61157","4088.18","48.35","0.346269"
"1.62326","4095.26","48.7","0.349099"
"1.635","4102.32","49.05","0.351965"
"1.64664","4108.74","49.4","0.354771"
"1.65828","4115.05","49.75","0.357632"
"1.66988","4120.84","50.1","0.360555"
"1.68153","4126.8","50.45","0.363348"
"1.69326","4132.69","50.8","0.366174"
"1.70495","4139.05","51.15","0.369008"
"1.71664","4144.92","51.5","0.371834"
"1.72829","4150.69","51.85","0.374678"
"1.73988","4156.31","52.2","0.377604"
"1.75162","4162.04","52.55","0.38052"
"1.76326","4167.96","52.9","0.38336"
"1.77495","4173.78","53.25","0.386281"
"1.78669","4179.61","53.6","0.389242"
"1.79824","4184.5","53.95","0.392148"
"1.80988","4189.34","54.3","0.39509"
"1.82157","4194.62","54.65","0.398015"
"1.83326","4200.27","55","0.401025"
"1.84495","4205.7","55.35","0.403938"
"1.85665","4211.12","55.7","0.406861"
"1.86829","4215.89","56.05","0.409852"
"1.87993","4220.88","56.4","0.412865"
"1.89158","4225.61","56.75","0.415832"
"1.90327","4230.83","57.1","0.418828"
"1.91496","4235.92","57.45","0.421855"
"1.9266","4240.35","57.8","0.424816"
"1.93829","4245.37","58.15","0.427818"
"1.94993","4249.73","58.5","0.430787"
"1.96153","4253.83","58.85","0.433807"
"1.97327","4259.11","59.2","0.436863"
"1.98496","4263.83","59.55","0.439909"
"1.9966","4268.27","59.9","0.442979"
"2.00829","4273.13","60.25","0.445985"
"2.01994","4277.35","60.6","0.44905"
"2.03158","4281.68","60.95","0.452088"
"2.04327","4286.38","61.3","0.455153"
"2.05496","4290.7","61.65","0.458266"
"2.0666","4294.43","62","0.46133"
"2.07829","4298.59","62.35","0.464396"
"2.08994","4302.92","62.7","0.46749"
"2.10158","4306.97","63.05","0.470502"
"2.11322","4311.18","63.4","0.473685"
"2.12491","4315.74","63.75","0.476791"
"2.13665","4319.85","64.1","0.479969"
"2.14825","4323.32","64.45","0.483038"
"2.15989","4327.39","64.8","0.486072"
"2.17163","4331.17","65.15","0.48928"
"2.18327","4335.11","65.5","0.492367"
"2.19492","4339.47","65.85","0.495556"
"2.20665","4343.25","66.2","0.498715"
"2.2183","4346.75","66.55","0.501839"
"2.22994","4350.43","66.9","0.50497"
"2.24158","4354.08","67.25","0.508151"
"2.25323","4357.81","67.6","0.511301"
"2.26492","4361.7","67.95","0.514461"
"2.27661","4364.85","68.3","0.517609"
"2.2883","4368.2","68.65","0.520773"
"2.29994","4371.75","69","0.523902"
"2.31158","4375.61","69.35","0.527051"
"2.32327","4379.38","69.7","0.530225"
"2.33496","4383.48","70.05","0.533409"
"2.34661","4386.93","70.4","0.536628"
"2.35835","4390.25","70.75","0.539811"
"2.3699","4393.16","71.1","0.54293"
"2.38154","4396.43","71.45","0.546116"
"2.39328","4400.06","71.8","0.549308"
"2.40492","4403.24","72.15","0.552435"
"2.41661","4406.98","72.5","0.555689"
"2.4283","4410.47","72.85","0.558911"
"2.43994","4413.71","73.2","0.562104"
"2.45159","4416.92","73.55","0.565345"
"2.46323","4420.17","73.9","0.568578"
"2.47497","4423.35","74.25","0.571746"
"2.48666","4426.69","74.6","0.57498"
"2.49826","4429.76","74.95","0.578156"
"2.50995","4432.86","75.3","0.581383"
"2.52159","4436.21","75.65","0.584612"
"2.53319","4439.23","76","0.587828"
"2.54492","4442.5","76.35","0.591046"
"2.55666","4446.1","76.7","0.594331"
"2.5683","4449.05","77.05","0.597608"
"2.57995","4451.76","77.4","0.600742"
"2.59159","4454.96","77.75","0.604025"
"2.60323","4457.99","78.1","0.607253"
"2.61492","4460.89","78.45","0.61054"
"2.62666","4464.06","78.8","0.613787"
"2.6383","4467.02","79.15","0.617039"
"2.64995","4469.71","79.5","0.620266"
"2.66155","4472.77","79.85","0.62355"
"2.67324","4476.01","80.2","0.626749"
"2.68493","4478.67","80.55","0.630055"
"2.69662","4482.06","80.9","0.633284"
"2.70835","4484.89","81.25","0.636582"
"2.7199","4487.31","81.6","0.639828"
"2.73155","4490.01","81.95","0.643048"
"2.74328","4493.15","82.3","0.646308"
"2.75493","4495.68","82.65","0.649518"
"2.76662","4499.06","83","0.652872"
"2.77835","4502.11","83.35","0.656161"
"2.78995","4504.41","83.7","0.65943"
"2.80155","4507.17","84.05","0.662664"
"2.81324","4509.94","84.4","0.665963"
"2.82493","4512.77","84.75","0.669223"
"2.83662","4515.64","85.1","0.672474"
"2.84826","4518.05","85.45","0.675751"
"2.85995","4520.49","85.8","0.67908"
"2.8716","4522.94","86.15","0.682213"
"2.88324","4525.55","86.5","0.685541"
"2.89498","4528.68","86.85","0.688853"
"2.90667","4531.67","87.2","0.692095"
"2.91826","4534.22","87.55","0.695435"
"2.92995","4536.64","87.9","0.698659"
"2.94155","4538.37","88.25","0.701938"
"2.95319","4540.96","88.6","0.705185"
"2.96493","4543.91","88.95","0.708464"
"2.97662","4546.59","89.3","0.711761"
"2.98831","4549.6","89.65","0.715063"
"2.99996","4551.88","90","0.718361"
"3.0116","4554.26","90.35","0.721626"
"3.02324","4556.53","90.7","0.724886"
"3.03493","4559.46","91.05","0.728205"
"3.04667","4562.2","91.4","0.731553"
"3.05831","4564.51","91.75","0.734825"
"3.06991","4566.82","92.1","0.738085"
"3.0816","4568.61","92.45","0.741343"
"3.09324","4571.02","92.8","0.744672"
"3.10493","4573.62","93.15","0.747835"
"3.11662","4576.34","93.5","0.751151"
"3.12831","4579.17","93.85","0.754533"
"3.13991","4581.33","94.2","0.757735"
"3.15156","4583.22","94.55","0.76103"
"3.16325","4585.54","94.9","0.764319"
"3.17494","4588.19","95.25","0.767587"
"3.18663","4590.47","95.6","0.770841"
"3.19832","4592.94","95.95","0.774129"
"3.20991","4594.91","96.3","0.77737"
"3.2216","4597.01","96.65","0.780589"
"3.23325","4599.42","97","0.783878"
"3.24494","4602.14","97.35","0.787139"
"3.25663","4604.41","97.7","0.790391"
"3.26827","4606.67","98.05","0.793706"
"3.27996","4609.02","98.4","0.796936"
"3.29156","4610.54","98.75","0.800195"
"3.30325","4612.84","99.1","0.803447"
"3.31499","4615.78","99.45","0.80669"
"3.32663","4617.97","99.8","0.809947"
"3.33827","4620.36","100.15","0.813157"
"3.34996","4622.59","100.5","0.816449"
"3.36156","4624.5","100.85","0.819742"
"3.37325","4626.65","101.2","0.822968"
"3.38494","4629.17","101.55","0.826319"
"3.39658","4631.51","101.9","0.829498"
"3.40827","4633.52","102.25","0.832762"
"3.41992","4635.58","102.6","0.83596"
"3.43161","4637.75","102.95","0.839246"
"3.44325","4639.72","103.3","0.842466"
"3.45489","4642.23","103.65","0.845732"
"3.46663","4644.93","104","0.848946"
"3.47832","4646.7","104.35","0.852224"
"3.48992","4648.48","104.7","0.855399"
"3.50161","4650.67","105.05","0.858639"
"3.51321","4652.52","105.4","0.861863"
"3.5249","4654.75","105.75","0.865106"
"3.53663","4657.4","106.1","0.868327"
"3.54828","4659.23","106.45","0.871575"
"3.55997","4661.07","106.8","0.874792"
"3.57161","4663.27","107.15","0.878037"
"3.58325","4665.19","107.5","0.881305"
"3.59494","4667.29","107.85","0.884466"
"3.60659","4669.64","108.2","0.887658"
"3.61832","4671.32","108.55","0.890917"
"3.62997","4673.16","108.9","0.89414"
"3.64157","4674.8","109.25","0.897335"
"3.65326","4677.12","109.6","0.900587"
"3.66495","4679.34","109.95","0.903799"
"3.67659","4681.42","110.3","0.907065"
"3.68828","4683.71","110.65","0.910328"
"3.70002","4685.49","111","0.913567"
"3.71157","4687.79","111.35","0.916776"
"3.72326","4689.55","111.7","0.92001"
"3.73495","4691.56","112.05","0.923241"
"3.74659","4693.61","112.4","0.926523"
"3.75833","4695.67","112.75","0.92966"
"3.76997","4697.49","113.1","0.932909"
"3.78161","4699.51","113.45","0.936181"
"3.79321","4701.32","113.8","0.939408"
"3.8049","4703.53","114.15","0.942643"
"3.81659","4705.65","114.5","0.945969"
"3.82828","4707.64","114.85","0.949177"
"3.83997","4709.56","115.2","0.95243"
"3.85162","4711.48","115.55","0.955631"
"3.86321","4713","115.9","0.958908"
"3.8749","4714.79","116.25","0.962083"
"3.88664","4717.26","116.6","0.965346"
"3.89833","4719.17","116.95","0.968637"
"3.90997","4721.31","117.3","0.97182"
"3.92162","4723.36","117.65","0.975078"
"3.93322","4724.74","118","0.978314"
"3.94486","4726.71","118.35","0.981543"
"3.9566","4728.73","118.7","0.984824"
"3.96829","4730.78","119.05","0.988024"
"3.97998","4732.84","119.4","0.991255"
"3.99157","4734.42","119.75","0.99445"
"4.00326","4736.2","120.1","0.997685"
"4.01495","4737.74","120.45","1.00084"
"4.0266","4739.63","120.8","1.00402"
"4.03833","4741.85","121.15","1.00724"
"4.04998","4743.62","121.5","1.01042"
"4.06157","4745.09","121.85","1.01366"
"4.07326","4747.05","122.2","1.01679"
"4.08491","4748.48","122.55","1.01999"
"4.0966","4750.73","122.9","1.02319"
"4.10829","4753.05","123.25","1.02634"
"4.11998","4754.8","123.6","1.02963"
"4.13158","4756.54","123.95","1.03283"
"4.14327","4758.81","124.3","1.03603"
"4.15496","4760.41","124.65","1.03924"
"4.1666","4762.43","125","1.04247"
"4.17829","4764.64","125.35","1.04576"
"4.18998","4766.36","125.7","1.04893"
"4.20162","4767.71","126.05","1.05211"
"4.21322","4769.44","126.4","1.05529"
"4.22491","4771.44","126.75","1.05852"
"4.23665","4773.41","127.1","1.06179"
"4.24829","4775.58","127.45","1.06501"
"4.25998","4777.49","127.8","1.06828"
"4.27163","4779.08","128.15","1.07154"
"4.28322","4780.45","128.5","1.07476"
"4.29491","4782.58","128.85","1.078"
"4.30665","4784.65","129.2","1.08128"
"4.31829","4786.45","129.55","1.08453"
"4.32998","4788.2","129.9","1.08768"
"4.34163","4789.63","130.25","1.0909"
"4.35322","4791.15","130.6","1.09414"
"4.36491","4793.3","130.95","1.09741"
"4.3766","4795.17","131.3","1.10067"
"4.38829","4797.4","131.65","1.104"
"4.39998","4798.95","132","1.10714"
"4.41158","4800.42","132.35","1.11046"
"4.42327","4801.85","132.7","1.11365"
"4.43492","4803.6","133.05","1.11691"
"4.44661","4805.62","133.4","1.12017"
"4.45834","4807.98","133.75","1.12343"
"4.46994","4809.36","134.1","1.1266"
"4.48158","4810.66","134.45","1.12991"
"4.49327","4812.27","134.8","1.13317"
"4.50492","4814","135.15","1.13639"
"4.51656","4815.93","135.5","1.13968"
"4.5283","4818.21","135.85","1.14288"
"4.53999","4819.58","136.2","1.1462"
"4.55163","4821.2","136.55","1.14946"
"4.56323","4822.35","136.9","1.15267"
"4.57496","4824.49","137.25","1.1559"
"4.58661","4826.37","137.6","1.15922"
"4.5983","4828.13","137.95","1.16239"
"4.60999","4830.74","138.3","1.16569"
"4.62163","4831.65","138.65","1.16902"
"4.63323","4832.96","139","1.17226"
"4.64492","4834.92","139.35","1.17552"
"4.65656","4836.53","139.7","1.17877"
"4.66825","4838.18","140.05","1.182"
"4.67999","4840.02","140.4","1.18525"
"4.69163","4841.25","140.75","1.18853"
"4.70328","4843.03","141.1","1.19177"
"4.71492","4844.76","141.45","1.19503"
"4.72661","4846.84","141.8","1.1983"
"4.7383","4848.38","142.15","1.20153"
"4.74994","4850.23","142.5","1.20475"
"4.76163","4851.66","142.85","1.20808"
"4.77328","4853.13","143.2","1.21132"
"4.78488","4854.34","143.55","1.21455"
"4.79657","4856.39","143.9","1.21781"
"4.8083","4858.29","144.25","1.22108"
"4.81995","4859.86","144.6","1.22428"
"4.83164","4861.46","144.95","1.22753"
"4.84333","4863.07","145.3","1.23081"
"4.85492","4864.59","145.65","1.23401"
"4.86657","4866.39","146","1.23727"
"4.8783","4868.08","146.35","1.24055"
"4.88995","4869.5","146.7","1.24373"
"4.90164","4870.96","147.05","1.24704"
"4.91328","4872.71","147.4","1.25033"
"4.92493","4874.18","147.75","1.2535"
"4.93657","4876.06","148.1","1.25681"
"4.94826","4877.49","148.45","1.26017"
"4.95995","4879.18","148.8","1.26345"
"4.97164","4880.86","149.15","1.26671"
"4.98324","4882.16","149.5","1.26998"
"4.99493","4883.58","149.85","1.27321"
"5.00657","4885.56","150.2","1.27647"
"5.01826","4886.91","150.55","1.27977"
"5.03","4888.38","150.9","1.28296"
"5.04164","4890.01","151.25","1.28626"
"5.05324","4891.27","151.6","1.28951"
"5.06493","4892.75","151.95","1.29274"
"5.07657","4894.3","152.3","1.29603"
"5.08826","4895.79","152.65","1.29936"
"5.09995","4897.43","153","1.30258"
"5.11164","4899.21","153.35","1.30577"
"5.12329","4900.3","153.7","1.30903"
"5.13488","4901.35","154.05","1.31225"
"5.14662","4903.49","154.4","1.31554"
"5.15831","4905.2","154.75","1.31885"
"5.16995","4906.8","155.1","1.32206"
"5.18164","4908.52","155.45","1.32538"
"5.19329","4909.7","155.8","1.32859"
"5.20484","4910.79","156.15","1.33188"
"5.21657","4912.41","156.5","1.33516"
"5.22831","4914.41","156.85","1.33842"
"5.23996","4915.4","157.2","1.34164"
"5.25165","4917.21","157.55","1.34488"
"5.26329","4918.68","157.9","1.34814"
"5.27489","4919.9","158.25","1.35142"
"5.28658","4921.66","158.6","1.35473"
"5.29831","4923.61","158.95","1.35794"
"5.30996","4924.96","159.3","1.36125"
"5.32165","4926.09","159.65","1.36451"
"5.33324","4927.67","160","1.36774"
"5.34489","4928.89","160.35","1.37099"
"5.35653","4930.2","160.7","1.37421"
"5.36827","4932.41","161.05","1.37749"
"5.38","4934.26","161.4","1.38077"
"5.39165","4935.28","161.75","1.38398"
"5.40325","4936.89","162.1","1.38729"
"5.41494","4938.3","162.45","1.39053"
"5.42658","4939.43","162.8","1.39376"
"5.43827","4941.55","163.15","1.39711"
"5.45001","4943.29","163.5","1.40036"
"5.46165","4944.01","163.85","1.40356"
"5.47325","4945.35","164.2","1.40682"
"5.48489","4946.54","164.55","1.4101"
"5.49658","4947.8","164.9","1.41333"
"5.50827","4949.87","165.25","1.41658"
"5.51996","4951.95","165.6","1.41988"
"5.53165","4953.09","165.95","1.42312"
"5.54325","4954.24","166.3","1.42636"
"5.55489","4955.58","166.65","1.42962"
"5.56658","4956.64","167","1.43284"
"5.57827","4958.15","167.35","1.43607"
"5.58996","4959.9","167.7","1.43931"
"5.6017","4961.5","168.05","1.44261"
"5.61325","4962.09","168.4","1.44584"
"5.62489","4963.53","168.75","1.44906"
"5.63658","4965.04","169.1","1.45227"
"5.64827","4966.25","169.45","1.45551"
"5.65992","4967.92","169.8","1.45875"
"5.67161","4969.52","170.15","1.46209"
"5.6833","4970.2","170.5","1.46522"
"5.69489","4971.62","170.85","1.46848"
"5.70658","4972.82","171.2","1.47174"
"5.71832","4974.93","171.55","1.47502"
"5.73001","4976.53","171.9","1.47824"
"5.74161","4977.7","172.25","1.48147"
"5.7533","4979.12","172.6","1.48472"
"5.7649","4980.03","172.95","1.48795"
"5.77654","4981.21","173.3","1.49122"
"5.78828","4982.86","173.65","1.49443"
"5.79997","4984.39","174","1.49769"
"5.81161","4985.66","174.35","1.50096"
"5.8233","4987.09","174.7","1.50419"
"5.83494","4987.97","175.05","1.50745"
"5.84659","4989.42","175.4","1.51076"
"5.85828","4990.95","175.75","1.51401"
"5.86997","4992.49","176.1","1.51729"
"5.88161","4993.7","176.45","1.52052"
"5.89326","4994.89","176.8","1.52377"
"5.9049","4995.73","177.15","1.52695"
"5.91659","4997.22","177.5","1.53027"
"5.92823","4998.62","177.85","1.53351"
"5.93992","5000.32","178.2","1.53676"
"5.95166","5001.77","178.55","1.54006"
"5.96326","5002.67","178.9","1.5433"
"5.9749","5003.99","179.25","1.54653"
"5.98664","5005.49","179.6","1.54977"
"5.99823","5006.71","179.95","1.55309"
"6.00992","5008.14","180.3","1.55624"
"6.02166","5009.84","180.65","1.55957"
"6.03326","5010.18","181","1.56275"
"6.0449","5011.78","181.35","1.56599"
"6.05659","5013.09","181.7","1.56923"
"6.06824","5014.66","182.05","1.5725"
"6.07997","5016.15","182.4","1.57577"
"6.09162","5017.49","182.75","1.57896"
"6.10331","5018.34","183.1","1.58225"
"6.11495","5019.53","183.45","1.5854"
"6.12655","5020.56","183.8","1.58859"
"6.13828","5022.31","184.15","1.5919"
"6.14997","5023.15","184.5","1.59501"
"6.16162","5024.79","184.85","1.59822"
"6.17335","5026.09","185.2","1.6015"
"6.1849","5026.94","185.55","1.60465"
"6.19655","5028.15","185.9","1.60793"
"6.20829","5029.48","186.25","1.61111"
"6.21993","5030.27","186.6","1.61429"
"6.23162","5031.46","186.95","1.61746"
"6.24326","5032.77","187.3","1.62063"
"6.25491","5033.29","187.65","1.62382"
"6.2666","5035.1","188","1.62699"
"6.27824","5036.43","188.35","1.63015"
"6.28998","5037.72","188.7","1.63331"
"6.30167","5038.93","189.05","1.63651"
"6.31326","5039.84","189.4","1.63976"
"6.32495","5041.31","189.75","1.64295"
"6.33655","5042.04","190.1","1.64608"
"6.34819","5043.37","190.45","1.6493"
"6.35993","5044.48","190.8","1.65246"
"6.37167","5045.89","191.15","1.65563"
"6.38327","5046.77","191.5","1.65878"
"6.39491","5047.92","191.85","1.66198"
"6.4066","5048.88","192.2","1.66509"
"6.41824","5050.61","192.55","1.66828"
"6.42998","5051.86","192.9","1.67149"
"6.44167","5053.01","193.25","1.67469"
"6.45327","5054.02","193.6","1.67786"
"6.46491","5054.77","193.95","1.68106"
"6.47655","5055.8","194.3","1.68424"
"6.48824","5057.11","194.65","1.68741"
"6.49993","5058.48","195","1.69064"
"6.51162","5059.63","195.35","1.69383"
"6.52331","5061.21","195.7","1.69705"
"6.53491","5061.74","196.05","1.70024"
"6.54656","5062.99","196.4","1.70336"
"6.55829","5064.32","196.75","1.70652"
"6.56994","5064.81","197.1","1.70975"
"6.58163","5066.09","197.45","1.71298"
"6.59332","5067.48","197.8","1.71615"
"6.60491","5068.02","198.15","1.71929"
"6.61656","5069.09","198.5","1.72243"
"6.62825","5070.44","198.85","1.72568"
"6.63994","5071.7","199.2","1.72881"
"6.65167","5073.11","199.55","1.73207"
"6.66327","5074.38","199.9","1.73525"
"6.67496","5075.38","200.25","1.73845"
"6.68656","5076.14","200.6","1.74163"
"6.6982","5076.87","200.95","1.74475"
"6.70999","5078.75","201.3","1.748"
"6.72168","5079.69","201.65","1.7511"
"6.73327","5080.76","202","1.7543"
"6.74496","5082.04","202.35","1.75747"
"6.75656","5082.64","202.7","1.76061"
"6.7682","5083.91","203.05","1.76377"
"6.77994","5085.69","203.4","1.76698"
"6.79163","5086.37","203.75","1.77018"
"6.80327","5087.38","204.1","1.77337"
"6.81492","5088.28","204.45","1.77654"
"6.82656","5089.04","204.8","1.77971"
"6.83825","5089.94","205.15","1.7828"
"6.84994","5091.85","205.5","1.78599"
"6.86168","5093.06","205.85","1.78917"
"6.87332","5094.16","206.2","1.79238"
"6.88492","5095.09","206.55","1.79547"
"6.89656","5096.02","206.9","1.79866"
"6.90825","5096.96","207.25","1.80185"
"6.9199","5098.42","207.6","1.80501"
"6.93163","5099.55","207.95","1.80818"
"6.94332","5100.49","208.3","1.81131"
"6.95492","5101.36","208.65","1.81441"
"6.96656","5102.45","209","1.81757"
"6.9783","5103.51","209.35","1.82072"
"6.98994","5104.98","209.7","1.82393"
"7.00163","5105.87","210.05","1.82709"
"7.01328","5106.61","210.4","1.8302"
"7.02492","5107.26","210.75","1.83335"
"7.03657","5107.97","211.1","1.8365"
"7.04826","5109.11","211.45","1.83966"
"7.05995","5110.25","211.8","1.8427"
"7.07164","5111.25","212.15","1.84591"
"7.08328","5112.06","212.5","1.84901"
"7.09497","5113.35","212.85","1.85217"
"7.10657","5113.95","213.2","1.8553"
"7.11826","5115.12","213.55","1.85835"
"7.12999","5116.61","213.9","1.86156"
"7.14164","5117.54","214.25","1.86464"
"7.15328","5118.19","214.6","1.86779"
"7.16497","5119.11","214.95","1.87087"
"7.17657","5119.71","215.3","1.87403"
"7.18821","5120.71","215.65","1.87711"
"7.19995","5122.02","216","1.88023"
"7.21164","5123.13","216.35","1.88338"
"7.22333","5123.94","216.7","1.88651"
"7.23493","5124.32","217.05","1.88959"
"7.24662","5125.44","217.4","1.89269"
"7.25826","5126.03","217.75","1.89576"
"7.2699","5127.01","218.1","1.89889"
"7.28164","5128.51","218.45","1.90197"
"7.29333","5129.08","218.8","1.90503"
"7.30493","5129.47","219.15","1.90804"
"7.31662","5130.56","219.5","1.91115"
"7.32822","5131.27","219.85","1.91424"
"7.33991","5132.08","220.2","1.91735"
"7.35164","5133.01","220.55","1.92045"
"7.36329","5133.68","220.9","1.92351"
"7.37493","5134.15","221.25","1.92647"
"7.38657","5134.88","221.6","1.92945"
"7.39826","5135.63","221.95","1.93247"
"7.40991","5135.92","222.3","1.93543"
"7.4216","5137.42","222.65","1.93844"
"7.43333","5138.46","223","1.94141"
"7.44498","5139.15","223.35","1.94441"
"7.45657","5139.88","223.7","1.94734"
"7.46822","5140.14","224.05","1.95032"
"7.47991","5140.79","224.4","1.95327"
"7.4916","5141.59","224.75","1.95612"
"7.50329","5142.69","225.1","1.95905"
"7.51498","5143.53","225.45","1.96202"
"7.52658","5143.95","225.8","1.96491"
"7.53822","5145.01","226.15","1.96783"
"7.54996","5146.15","226.5","1.97077"
"7.56165","5147.02","226.85","1.97371"
"7.57329","5148.26","227.2","1.97665"
"7.58498","5148.67","227.55","1.97954"
"7.59658","5149.29","227.9","1.98248"
"7.60822","5150.19","228.25","1.98535"
"7.61991","5151.14","228.6","1.98825"
"7.6316","5152.12","228.95","1.99123"
"7.64329","5153.17","229.3","1.99412"
"7.65498","5153.95","229.65","1.99703"
"7.66663","5154.59","230","1.99994"
"7.67827","5154.58","230.35","2.00275"
"7.68991","5154.99","230.7","2.00556"
"7.70165","5156.17","231.05","2.00835"
"7.71329","5156.31","231.4","2.01123"
"7.72494","5157.13","231.75","2.01406"
"7.73663","5158.01","232.1","2.01695"
"7.74822","5159.16","232.45","2.01982"
"7.75991","5159.88","232.8","2.02264"
"7.7716","5160.94","233.15","2.02551"
"7.78329","5161.84","233.5","2.02833"
"7.79498","5162.63","233.85","2.03131"
"7.80658","5163.08","234.2","2.03486"
"7.81822","5163.22","234.55","2.0701"
"7.82991","5162.83","234.9","-0.632242"
"7.84161","5163.59","235.25","-0.476453"
"7.85334","5165.28","235.6","4.58295"
"7.86499","5166.03","235.95","6.34924"
"7.87658","5166.79","236.3","4.72357"
"7.88823","5168.36","236.65","4.38436"
"7.89992","5169.27","237","4.16148"
"7.91161","5170.21","237.35","4.51184"
"7.9233","5171.35","237.7","4.18932"
"7.93494","5172.19","238.05","3.40541"
"7.94658","5172.62","238.4","5.29757"
"7.95823","5173.27","238.75","0.852288"
"7.96992","5174.39","239.1","1.44851"
"7.98161","5175.28","239.45","2.41812"
"7.9933","5176.07","239.8","2.48229"
"8.00499","5177.37","240.15","5.11736"
"8.01659","5177.99","240.5","5.0595"
"8.02818","5178.32","240.85","5.23203"
"8.03992","5179.3","241.2","5.38191"
"8.05161","5179.57","241.55","5.71564"
"8.0633","5180.07","241.9","5.65146"
"8.07494","5181.03","242.25","5.61061"
"8.08659","5181.53","242.6","5.39983"
"8.09823","5182.29","242.95","5.21297"
"8.10992","5183.68","243.3","4.73479"
"8.12166","5184.82","243.65","4.00662"
"8.1333","5185.69","244","3.95165"
"8.14494","5186.43","244.35","3.84295"
"8.15659","5187.03","244.7","3.53743"
"8.16823","5187.33","245.05","3.41929"
"8.17992","5188.33","245.4","3.64766"
"8.19161","5189.3","245.75","3.73442"
"8.2033","5190.18","246.1","3.6063"
"8.21495","5191.31","246.45","3.45285"
"8.22659","5192.07","246.8","3.55734"
"8.23828","5192.82","247.15","3.4915"
"8.24992","5193.39","247.5","3.61268"
"8.26161","5194.83","247.85","3.61956"
"8.27335","5195.68","248.2","4.5652"
"8.28495","5196.02","248.55","4.5024"
"8.29654","5196.74","248.9","5.59546"
"8.30824","5197.31","249.25","5.04341"
"8.31988","5198.16","249.6","4.98503"
"8.33157","5199.64","249.95","4.77851"
"8.34331","5200.57","250.3","4.69683"
"8.35495","5201.24","250.65","4.30076"
"8.36659","5201.93","251","3.90059"
"8.37824","5202.43","251.35","3.92842"
"8.38993","5203.51","251.7","3.86643"
"8.40162","5204.55","252.05","3.82047"
"8.41326","5205.16","252.4","3.82601"
"8.42495","5205.67","252.75","3.55595"
"8.43659","5206","253.1","3.6925"
"8.44824","5206.33","253.45","3.60492"
"8.45993","5207.65","253.8","3.56825"
"8.47162","5208.64","254.15","3.42861"
"8.48326","5209.4","254.5","3.59293"
"8.49495","5209.92","254.85","6.96966"
"8.5066","5210.44","255.2","6.5427"
"8.51824","5210.97","255.55","7.79573"
"8.52993","5211.52","255.9","7.46018"
"8.54162","5212.61","256.25","7.00178"
"8.55331","5213.86","256.6","8.36363"
"8.56495","5214.55","256.95","5.50797"
"8.57664","5215.36","257.3","7.41583"
"8.58829","5215.86","257.65","6.2733"
"8.59988","5216.42","258","4.29145"
"8.61157","5217.5","258.35","2.51999"
"8.62331","5218.34","258.7","0.249307"
"8.63491","5218.38","259.05","0.163302"
"8.6466","5219.01","259.4","0.256069"
"8.65829","5219.97","259.75","0.474925"
"8.66993","5220","260.1","0.106599"
"8.68158","5220.8","260.45","0.575292"
"8.69331","5221.83","260.8","1.36501"
"8.70496","5222.22","261.15","2.56863"
"8.7166","5222.88","261.5","0.649991"
"8.72824","5222.97","261.85","-0.0307028"
"8.73989","5223.56","262.2","-0.00489996"
"8.75158","5224.17","262.55","0.00910417"
"8.76327","5225.06","262.9","-0.0162269"
"8.77496","5225.92","263.25","0.0264044"
"8.78665","5226.34","263.6","-0.0180494"
"8.79825","5227.43","263.95","-0.022402"
"8.80994","5228.27","264.3","0.00768804"
"8.82163","5229.03","264.65","-0.0295354"
"8.83327","5229.98","265","-0.0118135"
"8.84501","5230.98","265.35","-0.00937106"
"8.8566","5230.87","265.7","0.0268867"
"8.8682","5231.49","266.05","0.0374608"
"8.87994","5232.64","266.4","0.0185089"
"8.89158","5233.11","266.75","0.0191491"
"8.90327","5234.11","267.1","0.0182893"
"8.91501","5235.15","267.45","0.0186192"
"8.92665","5235.53","267.8","0.018366"
"8.93825","5235.98","268.15","0.0182728"
"8.94989","5236.44","268.5","0.0186437"
"8.96163","5237.28","268.85","0.0180833"
"8.97332","5237.58","269.2","0.0189008"
"8.98496","5237.97","269.55","0.0178009"
"8.99665","5238.51","269.9","0.0190956"
"9.00825","5238.46","270.25","0.0175814"
"9.01989","5239.04","270.6","0.0192745"
"9.03158","5240.03","270.95","0.0174125"
"9.04332","5241.29","271.3","0.0192602"
"9.05496","5241.73","271.65","0.0174136"
"9.06661","5242.46","272","0.0190771"
"9.07825","5242.86","272.35","0.017457"
"9.08989","5243.49","272.7","0.018963"
"9.10158","5244.14","273.05","0.0176117"
"9.11332","5244.91","273.4","0.0185635"
"9.12497","5245.72","273.75","0.0178608"
"9.13661","5246.41","274.1","0.0182233"
"9.14825","5246.69","274.45","0.0182096"
"9.1599","5247.22","274.8","0.0178636"
"9.17154","5246.83","275.15","0.0185671"
"9.18328","5247.43","275.5","0.0175013"
"9.19501","5248.34","275.85","0.0188059"
"9.20661","5248.55","276.2","0.0172101"
"9.21825","5248.77","276.55","0.0189342"
"9.22994","5249.79","276.9","0.0171486"
"9.24159","5250.38","277.25","0.018889"
"9.25328","5251.4","277.6","0.0172277"
"9.26501","5252.59","277.95","0.018684"
"9.27661","5252.75","278.3","0.0174622"
"9.28826","5253.23","278.65","0.0182537"
"9.2999","5253.47","279","0.01787"
"9.31154","5253.81","279.35","0.017778"
"9.32328","5254.75","279.7","0.0182501"
"9.33497","5255.82","280.05","0.0172576"
"9.34666","5256.08","280.4","0.0185839"
"9.35826","5256.52","280.75","0.016942"
"9.3699","5257.08","281.1","0.0187319"
"9.38164","5257.72","281.45","0.0168936"
"9.39333","5258.39","281.8","0.0186273"
"9.40497","5258.99","282.15","0.0171079"
"9.41666","5259.59","282.5","0.0182397"
"9.42826","5259.09","282.85","0.0174216"
"9.43985","5259.44","283.2","0.0177915"
"9.45159","5260.33","283.55","0.0178539"
"9.46328","5260.86","283.9","0.0172328"
"9.47497","5261.85","284.25","0.0182202"
"9.48666","5262.61","284.6","0.016817"
"9.49826","5262.56","284.95","0.0185192"
"9.5099","5263.06","285.3","0.01666"
"9.52159","5263.42","285.65","0.0183468"
"9.53328","5264.7","286","0.0167069"
"9.54497","5265.37","286.35","0.0181483"
"9.55662","5265.85","286.7","0.0168909"
"9.56826","5266.42","287.05","0.0177733"
"9.5799","5266.7","287.4","0.0172986"
"9.59155","5267.29","287.75","0.0171739"
"9.60329","5268.22","288.1","0.0177018"
"9.61498","5269.01","288.45","0.0168374"
"9.62657","5269.65","288.8","0.0181251"
"9.63826","5269.6","289.15","0.0165238"
"9.64991","5270.02","289.5","0.0183184"
"9.6616","5270.39","289.85","0.0164142"
"9.67329","5270.76","290.2","0.0181686"
"9.68498","5271.44","290.55","0.0165906"
"9.69662","5271.84","290.9","0.0179146"
"9.70826","5272","291.25","0.0168947"
"9.71991","5271.95","291.6","0.0174093"
"9.7316","5272.29","291.95","0.017289"
"9.74324","5272.78","292.3","0.016904"
"9.75493","5273.38","292.65","0.017763"
"9.76662","5273.91","293","0.0165582"
"9.77827","5273.95","293.35","0.0180215"
"9.78991","5274.31","293.7","0.0162837"
"9.80165","5275.61","294.05","0.0180623"
"9.81329","5276.06","294.4","0.0162738"
"9.82493","5276.7","294.75","0.0179344"
"9.83667","5277.19","295.1","0.0164568"
"9.84827","5277.01","295.45","0.0177038"
"9.85991","5277.23","295.8","0.017122"
"9.8716","5277.84","296.15","0.0170559"
"9.88324","5278.26","296.5","0.0173331"
"9.89493","5278.75","296.85","0.0168204"
"9.90662","5278.9","297.2","0.0177263"
"9.91827","5278.66","297.55","0.0163699"
"9.92996","5278.9","297.9","0.0180556"
"9.94156","5279.47","298.25","0.0161733"
"9.95329","5280.64","298.6","0.0179601"
"9.96498","5281.24","298.95","0.0161444"
"9.97658","5281.61","299.3","0.0179348"
"9.98832","5282.33","299.65","0.0164545"
"9.99991","5281.41","300","0.0173543"
"10.0116","5281.35","300.35","0.016726"
"10.0233","5282.28","300.7","0.0170394"
"10.0349","5282.76","301.05","0.017305"
"10.0466","5283.39","301.4","0.0165411"
"10.0583","5284.18","301.75","0.017666"
"10.0699","5284.39","302.1","0.0161212"
"10.0816","5285","302.45","0.0178238"
"10.0932","5285.69","302.8","0.0159925"
"10.105","5286.37","303.15","0.0178778"
"10.1167","5286.56","303.5","0.016179"
"10.1283","5286.91","303.85","0.0178603"
"10.1399","5287.77","304.2","0.0163246"
"10.1516","5288.15","304.55","0.0173329"
"10.1633","5288.8","304.9","0.0166662"
"10.1749","5289.66","305.25","0.0169112"
"10.1867","5290.02","305.6","0.0170063"
"10.1983","5290.63","305.95","0.0164759"
"10.2099","5290.82","306.3","0.0174109"
"10.2216","5291.12","306.65","0.0161272"
"10.2333","5291.76","307","0.0175703"
"10.2449","5292.71","307.35","0.0159443"
"10.2567","5292.95","307.7","0.0177067"
"10.2683","5292.92","308.05","0.0159424"
"10.2799","5293.8","308.4","0.0176894"
"10.2916","5294.33","308.75","0.0160402"
"10.3033","5294.75","309.1","0.0175205"
"10.3149","5295.44","309.45","0.0163156"
"10.3266","5295.43","309.8","0.0171564"
"10.3383","5295.18","310.15","0.0165612"
"10.3499","5295.39","310.5","0.0167862"
"10.3616","5295.875","310.85","0.0169717"
"10.3733","5296.58","311.2","0.0164286"
"10.385","5297.27","311.55","0.0173164"
"10.3966","5297.72","311.9","0.0160597"
"10.4083","5298.38","312.25","0.0174975"
"10.4199","5298.54","312.6","0.015866"
"10.4315","5298.83","312.95","0.0176341"
"10.4433","5299.24","313.3","0.0157776"
"10.4549","5300.09","313.65","0.0176204"
"10.4666","5300.92","314","0.0158673"
"10.4783","5300.95","314.35","0.0175425"
"10.4899","5301.55","314.7","0.0159858"
"10.5016","5301.84","315.05","0.0172978"
"10.5133","5302.27","315.4","0.0161642"
"10.525","5303.5","315.75","0.0170279"
"10.5366","5303.71","316.1","0.0164809"
"10.5482","5303.69","316.45","0.0167025"
"10.5599","5304.21","316.8","0.0167691"
"10.5716","5304.47","317.15","0.0164099"
"10.5832","5304.71","317.5","0.017061"
"10.5949","5306.1","317.85","0.016124"
"10.6066","5306.74","318.2","0.0172314"
"10.6183","5307.02","318.55","0.0159091"
"10.6299","5307.36","318.9","0.0175348"
"10.6416","5307.86","319.25","0.0157911"
"10.6533","5308.09","319.6","0.0175756"
"10.665","5308.85","319.95","0.0157808"
"10.6766","5309.47","320.3","0.0175295"
"10.6883","5308.43","320.65","0.0157702"
"10.6999","5306.88","321","0.0173772"
"10.7116","5307.51","321.35","0.0158646"
"10.7233","5307.84","321.7","0.0173063"
"10.735","5308.49","322.05","0.0160339"
"10.7466","5309.59","322.4","0.017145"
"10.7583","5309.74","322.75","0.016195"
"10.7699","5308.92","323.1","0.0169049"
"10.7816","5308.83","323.45","0.0163227"
"10.7933","5309.02","323.8","0.016699"
"10.805","5309.1","324.15","0.0165642"
"10.8166","5309","324.5","0.0163688"
"10.8283","5309.21","324.85","0.016797"
"10.8399","5309.13","325.2","0.0161378"
"10.8516","5309.46","325.55","0.0169662"
"10.8633","5309.21","325.9","0.0158884"
"10.875","5308.92","326.25","0.0171858"
"10.8866","5309.54","326.6","0.0157161"
"10.8982","5309.36","326.95","0.0173334"
"10.9099","5309.56","327.3","0.0156801"
"10.9216","5309.79","327.65","0.0174441"
"10.9333","5309.42","328","0.0155457"
"10.945","5309.7","328.35","0.0173876"
"10.9566","5310","328.7","0.0154963"
"10.9683","5309.9","329.05","0.0173865"
"10.9799","5309.1","329.4","0.0155653"
"10.9915","5308.72","329.75","0.0172965"
"11.0032","5309.27","330.1","0.0157179"
"11.015","5309.68","330.45","0.0172079"
"11.0266","5310.62","330.8","0.0158198"
"11.0383","5310.91","331.15","0.0170736"
"11.0499","5311.47","331.5","0.0159359"
"11.0616","5311.63","331.85","0.0168932"
"11.0733","5312.65","332.2","0.0161138"
"11.085","5313.43","332.55","0.0166681"
"11.0966","5313.97","332.9","0.016292"
"11.1083","5313.8","333.25","0.0164468"
"11.1199","5313.75","333.6","0.0164865"
"11.1316","5313.92","333.95","0.0162375"
"11.1432","5314.41","334.3","0.0166362"
"11.1549","5315.16","334.65","0.0160257"
"11.1667","5315.51","335","0.0168517"
"11.1783","5315.94","335.35","0.0158199"
"11.1899","5315.94","335.7","0.016952"
"11.2016","5316.47","336.05","0.0157126"
"11.2133","5317.17","336.4","0.0171053"
"11.2249","5317.45","336.75","0.0156002"
"11.2366","5317.82","337.1","0.0171858"
"11.2483","5318.13","337.45","0.0154538"
"11.2599","5317.94","337.8","0.0172491"
"11.2715","5318.17","338.15","0.0154768"
"11.2832","5318.9","338.5","0.0172694"
"11.295","5319.71","338.85","0.0154911"
"11.3066","5319.77","339.2","0.0172704"
"11.3183","5320.49","339.55","0.0155396"
"11.33","5320.56","339.9","0.0171667"
"11.3416","5320.87","340.25","0.0155512"
"11.3532","5321.3","340.6","0.0170742"
"11.365","5321.97","340.95","0.0156871"
"11.3766","5321.74","341.3","0.0168863"
"11.3883","5322.43","341.65","0.0158557"
"11.4","5322.72","342","0.0167213"
"11.4116","5323","342.35","0.0160185"
"11.4232","5323.64","342.7","0.0165411"
"11.4349","5324.06","343.05","0.0162899"
"11.4466","5324.34","343.4","0.0162487"
"11.4583","5324.75","343.75","0.0164993"
"11.4699","5324.83","344.1","0.016006"
"11.4816","5325.24","344.45","0.0167206"
"11.4932","5325.4","344.8","0.0157891"
"11.5049","5325.88","345.15","0.0169237"
"11.5167","5326.7","345.5","0.0156335"
"11.5283","5326.94","345.85","0.0170722"
"11.5399","5327.51","346.2","0.0154594"
"11.5516","5327.52","346.55","0.0172198"
"11.5632","5327.54","346.9","0.0153745"
"11.5749","5328.24","347.25","0.0171997"
"11.5866","5328.4","347.6","0.015381"
"11.5983","5328.78","347.95","0.0170968"
"11.6099","5329.29","348.3","0.0154647"
"11.6216","5329.55","348.65","0.0169985"
"11.6333","5330.21","349","0.0156235"
"11.645","5330.83","349.35","0.0169309"
"11.6566","5331.02","349.7","0.0159239"
"11.6683","5331.5","350.05","0.0166345"
"11.6799","5331.78","350.4","0.0160617"
"11.6915","5331.34","350.75","0.0163278"
"11.7032","5331.6","351.1","0.0162892"
"11.7149","5332.1","351.45","0.0160257"
"11.7266","5332.68","351.8","0.0165848"
"11.7383","5333.32","352.15","0.0157567"
"11.7499","5332.19","352.5","0.016826"
"11.7616","5332.32","352.85","0.0155247"
"11.7732","5332.47","353.2","0.0169973"
"11.7849","5332.93","353.55","0.015383"
"11.7966","5333.24","353.9","0.0171553"
"11.8083","5333.44","354.25","0.0153437"
"11.82","5333.92","354.6","0.0170668"
"11.8316","5333.85","354.95","0.015407"
"11.8432","5334.07","355.3","0.0170378"
"11.8549","5334.64","355.65","0.0155858"
"11.8667","5335.3","356","0.0167418"
"11.8783","5335.24","356.35","0.0158883"
"11.89","5335.29","356.7","0.0163997"
"11.9016","5333.67","357.05","0.0162103"
"11.9132","5333.15","357.4","0.016012"
"11.9249","5333.23","357.75","0.0165082"
"11.9367","5334.13","358.1","0.015542"
"11.9483","5334.29","358.45","0.0168857"
"11.96","5334.57","358.8","0.0153614"
"11.9716","5334.48","359.15","0.0170832"
"11.9832","5335.05","359.5","0.0152549"
"11.9949","5335.33","359.85","0.0170697"
"12.0066","5336.16","360.2","0.0153978"
"12.0183","5336.03","360.55","0.0168691"
"12.03","5336.24","360.9","0.0156547"
"12.0416","5336.29","361.25","0.0165609"
"12.0533","5336.81","361.6","0.0160451"
"12.0649","5337.13","361.95","0.0160991"
"12.0766","5337.73","362.3","0.0163188"
"12.0884","5338.51","362.65","0.0155414"
"12.1","5338.05","363","0.0168578"
"12.1116","5338.18","363.35","0.015342"
"12.1232","5338.63","363.7","0.0170582"
"12.1349","5338.84","364.05","0.0152542"
"12.1466","5339.2","364.4","0.0170123"
"12.1583","5339.86","364.75","0.0153983"
"12.17","5340.11","365.1","0.0166888"
"12.1816","5340","365.45","0.0157164"
"12.1932","5340.42","365.8","0.0162588"
"12.205","5341.1","366.15","0.0162"
"12.2166","5341.74","366.5","0.0158452"
"12.2283","5341.93","366.85","0.0166882"
"12.24","5342.02","367.2","0.0154425"
"12.2516","5341.95","367.55","0.016974"
"12.2632","5341.94","367.9","0.0152863"
"12.2749","5342.11","368.25","0.0170082"
"12.2866","5342.71","368.6","0.0152625"
"12.2983","5343.19","368.95","0.016922"
"12.31","5343.37","369.3","0.0155108"
"12.3216","5343.59","369.65","0.0166353"
"12.3332","5343.73","370","0.0159078"
"12.3449","5344.13","370.35","0.0162023"
"12.3566","5344.42","370.7","0.016312"
"12.3683","5344.52","371.05","0.015696"
"12.38","5344.09","371.4","0.0166792"
"12.3916","5343.22","371.75","0.0153837"
"12.4032","5343.09","372.1","0.0169585"
"12.4149","5343.17","372.45","0.0151498"
"12.4266","5342.49","372.8","0.0169289"
"12.4383","5341.43","373.15","0.0151666"
"12.45","5340.6","373.5","0.0168535"
"12.4616","5340.45","373.85","0.0154388"
"12.4733","5340.8","374.2","0.0165186"
"12.4849","5340.8","374.55","0.0158745"
"12.4966","5340.86","374.9","0.0161467"
"12.5083","5341.47","375.25","0.0162677"
"12.52","5341.38","375.6","0.0156162"
"12.5316","5340.99","375.95","0.0166653"
"12.5433","5341.22","376.3","0.0152281"
"12.5549","5341.28","376.65","0.0169134"
"12.5666","5341.37","377","0.0150894"
"12.5783","5341.17","377.35","0.0169083"
"12.59","5339.29","377.7","0.0151787"
"12.6016","5338.13","378.05","0.0167435"
"12.6133","5337.83","378.4","0.0154671"
"12.6249","5337.4","378.75","0.0164034"
"12.6366","5335.32","379.1","0.0157968"
"12.6483","5334.95","379.45","0.0159834"
"12.66","5334.83","379.8","0.0162292"
"12.6716","5333.98","380.15","0.0155615"
"12.6832","5333.13","380.5","0.0166174"
"12.6949","5330.88","380.85","0.0152108"
"12.7066","5328.28","381.2","0.016927"
"12.7183","5327.43","381.55","0.0150926"
"12.73","5327.27","381.9","0.0169096"
"12.7416","5326.67","382.25","0.0151769"
"12.7533","5324.53","382.6","0.0167417"
"12.7649","5323.04","382.95","0.0153032"
"12.7766","5322.32","383.3","0.0164395"
"12.7883","5319.04","383.65","0.0156728"
"12.7999","5316.83","384","0.0160004"
"12.8116","5315.75","384.35","0.0160668"
"12.8233","5314.76","384.7","0.0156795"
"12.8349","5313.22","385.05","0.0164748"
"12.8466","5311.99","385.4","0.0153617"
"12.8583","5304.26","385.75","0.0167374"
"12.87","5298.96","386.1","0.0150605"
"12.8816","5296.5","386.45","0.0168072"
"12.8933","5293.02","386.8","0.0149944"
"12.9049","5289.22","387.15","0.0167659"
"12.9166","5287.39","387.5","0.0150881"
"12.9283","5285.33","387.85","0.0166857"
"12.94","5283.54","388.2","0.0153865"
"12.9516","5281.52","388.55","0.0163254"
"12.9632","5274.91","388.9","0.0156788"
"12.9749","5271.66","389.25","0.0160015"
"12.9866","5269.68","389.6","0.0159909"
"12.9983","5265.72","389.95","0.0156927"
"13.01","5260.24","390.3","0.0164096"
"13.0216","5252.69","390.65","0.0154622"
"13.0332","5244.59","391","0.016649"
"13.0449","5232.38","391.35","0.015132"
"13.0566","5220.79","391.7","0.0168757"
"13.0683","5211.21","392.05","0.015025"
"13.08","5195.09","392.4","0.0168535"
"13.0916","5181.04","392.75","0.0150374"
"13.1032","5164.77","393.1","0.0167433"
"13.1149","5143.53","393.45","0.0151654"
"13.1266","5111.56","393.8","0.0166123"
"13.1383","5069.33","394.15","0.0153715"
"13.15","5019.46","394.5","0.0163289"
"13.1617","-472.137","394.829","0.015918"