File: experimental_data/tensile_specimen_test_data/tensile_test_data/20250311/SSS 3 03-11-25 12 36 06 下午/数采：横梁, … - (实时值).csv
"文件路径: C:\Users\Lenovo\Desktop\Wayne\20250311\SSS 3 03-11-25 12 36 06 下午\数采：横梁, … - (实时值).csv   "
"试验: MTS EM 拉伸试验-W 2"
"试验运行: SSS 3"
"日期: 2025/3/11 12:06:05"
""
""
"横梁 ","力 ","应变 ","应力 ","时间 "
"mm","N","mm/mm","N/mm²","sec"
"0.00274789","-132.11","2.2511e-05","-7.258771","0.1"
"0.00596153","-119.697","4.92913e-05","-6.57678","0.2"
"0.00964092","-94.5293","7.99529e-05","-5.19392","0.3"
"0.0130874","-71.3992","0.000109062","-3.92303","0.4"
"0.0165339","-48.6002","0.000137395","-2.67034","0.5"
"0.0199339","-28.0786","0.000165728","-1.54278","0.6"
"0.0232407","-8.65239","0.000193672","-0.475406","0.7"
"0.0266406","10.1446","0.000221617","0.557396","0.8"
"0.0299008","28.6227","0.000249173","1.57267","0.9"
"0.0333008","47.3432","0.000277118","2.60127","1"
"0.0366075","65.2583","0.000304675","3.58562","1.1"
"0.0400075","83.795","0.000333008","4.60412","1.2"
"0.0432677","101.594","0.000360176","5.582089","1.3"
"0.0466676","119.982","0.000388509","6.592403","1.4"
"0.0499278","136.984","0.000415677","7.526616","1.5"
"0.0533744","155.334","0.000444398","8.534859","1.6"
"0.056588","172.184","0.000471567","9.460639","1.7"
"0.0599879","189.981","0.000499511","10.4385","1.8"
"0.0632481","206.172","0.00052668","11.3281","1.9"
"0.0666015","223.375","0.000555013","12.2734","2"
"0.0699083","239.687","0.000582181","13.1696","2.1"
"0.0732617","256.486","0.000610514","14.09264","2.2"
"0.076615","272.306","0.00063807","14.9619","2.3"
"0.0799684","288.164","0.000666403","15.8332","2.4"
"0.0833217","303.046","0.00069396","16.65088","2.5"
"0.0866285","317.832","0.000721516","17.4633","2.6"
"0.0899819","332.083","0.000749461","18.2463","2.7"
"0.0932887","345.859","0.000777018","19.0032","2.8"
"0.096642","358.869","0.000804962","19.7181","2.9"
"0.0999023","371.408","0.000832131","20.407","3"
"0.103302","383.897","0.000860464","21.0932","3.1"
"0.106609","395.219","0.00088802","21.7153","3.2"
"0.109962","406.349","0.000916353","22.3269","3.3"
"0.113269","416.934","0.000943521","22.9085","3.4"
"0.116716","427.838","0.000972242","23.5076","3.5"
"0.119976","436.749","0.000999411","23.9972","3.6"
"0.123329","446.095","0.00102774","24.51073","3.7"
"0.126589","454.449","0.00105452","24.96973","3.8"
"0.129989","463.536","0.00108286","25.469","3.9"
"0.13325","471.304","0.00111041","25.8958","4"
"0.13665","479.387","0.00113836","26.3399","4.1"
"0.13991","486.759","0.00116553","26.745","4.2"
"0.14331","494.678","0.00119386","27.1801","4.3"
"0.146616","501.851","0.0012218","27.5742","4.4"
"0.14997","509.133","0.00124975","27.9743","4.5"
"0.153323","515.849","0.00127731","28.3434","4.6"
"0.15663","522.886","0.00130525","28.73","4.7"
"0.159983","529.243","0.00133281","29.07931","4.8"
"0.16329","535.592","0.00136036","29.4281","4.9"
"0.166643","542.086","0.00138831","29.785","5"
"0.16995","548.403","0.00141586","30.132","5.1"
"0.173304","554.751","0.00144381","30.4808","5.2"
"0.176564","560.743","0.00147137","30.8101","5.3"
"0.18001","567.118","0.0014997","31.1603","5.4"
"0.183271","572.874","0.00152687","31.4766","5.5"
"0.186671","579.236","0.0015552","31.8262","5.6"
"0.189931","584.627","0.00158237","32.1224","5.7"
"0.193331","590.431","0.00161109","32.4413","5.8"
"0.196591","595.734","0.00163787","32.73264","5.9"
"0.199991","601.721","0.0016662","33.06162","6"
"0.203251","606.788","0.00169337","33.34","6.1"
"0.206651","612.465","0.00172209","33.6519","6.2"
"0.209958","617.718","0.00174926","33.94054","6.3"
"0.213311","623.333","0.0017772","34.24906","6.4"
"0.216618","628.182","0.00180476","34.5155","6.5"
"0.219971","633.619","0.00183271","34.8142","6.6"
"0.223278","638.628","0.00186026","35.0894","6.7"
"0.226585","643.818","0.00188782","35.3746","6.8"
"0.229985","649.329","0.00191615","35.6774","6.9"
"0.233292","654.099","0.0019441","35.9395","7"
"0.236645","659.117","0.00197204","36.2152","7.1"
"0.239905","663.844","0.00199921","36.475","7.2"
"0.243352","669.469","0.00202754","36.78402","7.3"
"0.246612","673.816","0.0020551","37.02286","7.4"
"0.250012","679.005","0.00208304","37.308","7.5"
"0.253225","683.126","0.00210982","37.5344","7.6"
"0.256625","688.835","0.00213854","37.8481","7.7"
"0.259932","693.196","0.00216571","38.0877","7.8"
"0.263332","698.297","0.00219405","38.368","7.9"
"0.266592","702.145","0.0022216","38.5794","8"
"0.269992","707.446","0.00224994","38.87068","8.1"
"0.273299","711.67","0.00227749","39.1028","8.2"
"0.276699","716.439","0.00230544","39.3648","8.3"
"0.279959","720.207","0.00233261","39.5718","8.4"
"0.283313","725.35","0.00236055","39.8544","8.5"
"0.286619","729.255","0.00238811","40.069","8.6"
"0.289926","733.403","0.00241605","40.2968","8.7"
"0.29328","737.589","0.00244361","40.5269","8.8"
"0.296586","742.06","0.00247116","40.7725","8.9"
"0.29994","746.388","0.0024995","41.0104","9"
"0.303293","750.324","0.00252705","41.2266","9.1"
"0.306693","754.756","0.00255539","41.4701","9.2"
"0.309953","758.563","0.00258255","41.6793","9.3"
"0.313353","762.863","0.00261089","41.9156","9.4"
"0.316567","766.166","0.00263806","42.097","9.5"
"0.320013","770.549","0.00266639","42.33788","9.6"
"0.323227","774.289","0.00269356","42.5433","9.7"
"0.326627","778.755","0.0027215","42.7887","9.8"
"0.329887","782.329","0.00274906","42.9851","9.9"
"0.333334","786.385","0.00277739","43.208","10"
"0.336594","789.777","0.00280456","43.39432","10.1"
"0.339994","794.029","0.00283289","43.628","10.2"
"0.3433","797.382","0.00286045","43.8122","10.3"
"0.3467","801.337","0.00288878","44.0295","10.4"
"0.349961","804.622","0.00291595","44.21","10.5"
"0.353267","808.045","0.0029439","44.3981","10.6"
"0.356621","775.673","0.00297145","42.6194","10.7"
"0.359974","783.449","0.0029994","43.0466","10.8"
"0.363281","790.629","0.00302734","43.4411","10.9"
"0.366588","797.229","0.00305451","43.8038","11"
"0.369988","803.775","0.00308284","44.16348","11.1"
"0.373294","808.914","0.0031104","44.4459","11.2"
"0.376648","814.14","0.00313873","44.73294","11.3"
"0.379955","818.524","0.0031659","44.9739","11.4"
"0.383355","823.424","0.00319423","45.2431","11.5"
"0.386615","827.133","0.0032214","45.4469","11.6"
"0.390015","831.304","0.00324973","45.676","11.7"
"0.393228","834.781","0.0032769","45.8671","11.8"
"0.396675","839.275","0.00330524","46.114","11.9"
"0.399935","842.685","0.0033324","46.3014","12"
"0.403335","846.6","0.00336074","46.5165","12.1"
"0.406595","849.578","0.00338791","46.6801","12.2"
"0.409995","853.449","0.00341624","46.89282","12.3"
"0.413255","856.3","0.00344341","47.0494","12.4"
"0.416655","859.964","0.00347174","47.2508","12.5"
"0.419962","862.929","0.0034993","47.4137","12.6"
"0.423315","866.522","0.00352724","47.6111","12.7"
"0.426622","869.613","0.00355519","47.7809","12.8"
"0.429976","872.552","0.00358274","47.9424","12.9"
"0.433329","876.116","0.00361069","48.1382","13"
"0.436636","879.021","0.00363824","48.2979","13.1"
"0.439989","882.43","0.00366619","48.4851","13.2"
"0.443249","885.01","0.00369336","48.6269","13.3"
"0.446649","888.241","0.00372169","48.8044","13.4"
"0.449909","890.77","0.00374886","48.9434","13.5"
"0.453309","894.329","0.00377719","49.139","13.6"
"0.456616","896.966","0.00380475","49.2838","13.7"
"0.460016","900.341","0.00383308","49.4693","13.8"
"0.463276","902.766","0.00386064","49.6025","13.9"
"0.466676","906.098","0.00388858","49.7856","14"
"0.469936","908.277","0.00391575","49.9053","14.1"
"0.473336","911.641","0.00394447","50.0902","14.2"
"0.476597","914.004","0.00397125","50.22","14.3"
"0.47995","917.139","0.0039992","50.3923","14.4"
"0.483257","919.528","0.00402675","50.52354","14.5"
"0.486657","922.769","0.00405508","50.70158","14.6"
"0.489964","925.236","0.00408264","50.8372","14.7"
"0.49327","928.028","0.00411059","50.99054","14.8"
"0.49667","931.072","0.00413853","51.1578","14.9"
"0.500024","934.039","0.00416648","51.3208","15"
"0.50333","936.396","0.00419442","51.4503","15.1"
"0.506637","938.545","0.00422159","51.5684","15.2"
"0.509991","941.801","0.00424953","51.7473","15.3"
"0.513297","944.198","0.00427709","51.879","15.4"
"0.516651","947.239","0.00430503","52.0461","15.5"
"0.519911","949.059","0.0043322","52.1461","15.6"
"0.523311","952.077","0.00436054","52.31192","15.7"
"0.526571","954.231","0.00438809","52.4303","15.8"
"0.530018","957.566","0.00441643","52.6135","15.9"
"0.533278","959.087","0.00444359","52.6971","16"
"0.536678","962.573","0.00447193","52.8886","16.1"
"0.539938","964.279","0.00449909","52.9824","16.2"
"0.543338","966.936","0.00452743","53.1283","16.3"
"0.546598","968.809","0.0045546","53.2313","16.4"
"0.549998","971.911","0.00458293","53.4017","16.5"
"0.553258","974.017","0.0046101","53.5174","16.6"
"0.556612","976.668","0.00463804","53.6631","16.7"
"0.559965","978.637","0.00466599","53.7713","16.8"
"0.563318","981.437","0.00469393","53.9251","16.9"
"0.566625","983.992","0.00472188","54.0655","17"
"0.569978","986.429","0.00474943","54.1994","17.1"
"0.573332","988.901","0.00477738","54.3352","17.2"
"0.576639","991.092","0.00480493","54.4556","17.3"
"0.579992","993.917","0.00483288","54.61084","17.4"
"0.583252","995.859","0.00486044","54.7175","17.5"
"0.586699","998.521","0.00488877","54.8638","17.6"
"0.589959","1000.62","0.00491594","54.9791","17.7"
"0.593359","1003.41","0.00494427","55.1323","17.8"
"0.596573","1005.37","0.00497144","55.2403","17.9"
"0.600019","1008.02","0.00499977","55.3859","18"
"0.603279","1009.67","0.00502694","55.4765","18.1"
"0.606633","1012.38","0.00505488","55.6254","18.2"
"0.609939","1014.68","0.00508244","55.7517","18.3"
"0.613339","1017.47","0.00511116","55.9052","18.4"
"0.616646","1019.18","0.00513833","55.9991","18.5"
"0.619953","1021.71","0.00516627","56.13818","18.6"
"0.62326","1023.66","0.00519383","56.245","18.7"
"0.62666","1026.31","0.00522178","56.3905","18.8"
"0.629966","1028.07","0.00524933","56.4874","18.9"
"0.633273","1030.31","0.00527689","56.6102","19"
"0.63658","1032.41","0.00530483","56.7259","19.1"
"0.639933","1034.95","0.00533239","56.8656","19.2"
"0.643287","1037.02","0.00536072","56.9792","19.3"
"0.646594","1038.82","0.00538789","57.0779","19.4"
"0.649993","1041.45","0.00541622","57.2223","19.5"
"0.6533","1043.55","0.00544378","57.3381","19.6"
"0.6567","1045.96","0.00547211","57.4701","19.7"
"0.65996","1047.29","0.00549928","57.5432","19.8"
"0.66336","1049.98","0.00552761","57.6911","19.9"
"0.666574","1051.55","0.00555478","57.7777","20"
"0.669974","1053.98","0.00558312","57.9111","20.1"
"0.673234","1055.35","0.0056099","57.9865","20.2"
"0.676634","1057.89","0.00563823","58.1261","20.3"
"0.679894","1059.95","0.00566579","58.239","20.4"
"0.683294","1062.39","0.00569412","58.37282","20.5"
"0.686648","1064.36","0.00572167","58.4811","20.6"
"0.690001","1066.91","0.00575001","58.62148","20.7"
"0.693308","1068.49","0.00577718","58.70816","20.8"
"0.696661","1070.66","0.00580512","58.8277","20.9"
"0.699968","1072.2","0.00583268","58.912","21"
"0.703275","1074.4","0.00586062","59.033","21.1"
"0.706628","1076.13","0.00588818","59.1279","21.2"
"0.709935","1078.63","0.00591574","59.26526","21.3"
"0.713288","1080.59","0.00594407","59.3733","21.4"
"0.716595","1082.5","0.00597162","59.4779","21.5"
"0.719995","1084.91","0.00599957","59.6103","21.6"
"0.723302","1086.78","0.00602713","59.7131","21.7"
"0.726702","1089.18","0.00605546","59.8452","21.8"
"0.729962","1090.28","0.00608263","59.9055","21.9"
"0.733315","1092.73","0.00611096","60.0401","22"
"0.736575","1094.33","0.00613774","60.12814","22.1"
"0.740022","1097.01","0.00616646","60.2753","22.2"
"0.743282","1098.16","0.00619363","60.3382","22.3"
"0.746635","1100.28","0.00622157","60.4551","22.4"
"0.749896","1101.78","0.00624913","60.5372","22.5"
"0.753342","1104.46","0.00627746","60.6847","22.6"
"0.756602","1105.75","0.00630502","60.75548","22.7"
"0.759956","1107.72","0.00633258","60.8636","22.8"
"0.763263","1109.18","0.00636013","60.94392","22.9"
"0.766663","1111.74","0.00638847","61.0844","23"
"0.769969","1113.11","0.00641602","61.15996","23.1"
"0.773276","1114.89","0.00644358","61.2578","23.2"
"0.776629","1116.52","0.00647152","61.3473","23.3"
"0.779936","1118.61","0.00649947","61.462","23.4"
"0.783336","1120.8","0.00652741","61.5822","23.5"
"0.786596","1121.89","0.00655497","61.6425","23.6"
"0.789996","1124.21","0.00658291","61.7698","23.7"
"0.793257","1125.56","0.00661008","61.8442","23.8"
"0.796656","1127.73","0.00663842","61.96342","23.9"
"0.799917","1129.19","0.00666597","62.0433","24"
"0.803363","1131.58","0.00669431","62.1749","24.1"
"0.806623","1132.93","0.00672147","62.2489","24.2"
"0.810023","1135.15","0.00674981","62.371","24.3"
"0.813284","1136.49","0.00677698","62.4447","24.4"
"0.816684","1138.75","0.0068057","62.5687","24.5"
"0.819944","1140.25","0.00683286","62.65098","24.6"
"0.823297","1142.41","0.00686081","62.7696","24.7"
"0.826604","1143.59","0.00688798","62.8343","24.8"
"0.829957","1145.72","0.00691592","62.95188","24.9"
"0.833264","1147.33","0.00694348","63.04018","25"
"0.836617","1149.27","0.00697142","63.14666","25.1"
"0.839971","1151.33","0.00699976","63.2598","25.2"
"0.843324","1152.75","0.00702731","63.3377","25.3"
"0.846677","1154.57","0.00705526","63.43778","25.4"
"0.849938","1156.13","0.00708281","63.5238","25.5"
"0.853338","1157.97","0.00711076","63.6247","25.6"
"0.856598","1159.34","0.00713832","63.7001","25.7"
"0.859951","1161.11","0.00716587","63.7972","25.8"
"0.863211","1162.5","0.00719304","63.8735","25.9"
"0.866658","1164.57","0.00722176","63.9872","26"
"0.869918","1166.27","0.00724893","64.08082","26.1"
"0.873318","1168.1","0.00727726","64.1815","26.2"
"0.876578","1169.37","0.00730482","64.2514","26.3"
"0.880025","1171.87","0.00733354","64.3882","26.4"
"0.883332","1172.62","0.00736071","64.4296","26.5"
"0.886685","1174.37","0.00738865","64.5256","26.6"
"0.889899","1175.3","0.00741582","64.57714","26.7"
"0.893299","1177.8","0.00744415","64.7146","26.8"
"0.896605","1179.08","0.00747132","64.7846","26.9"
"0.899959","1180.73","0.00749927","64.8752","27"
"0.903265","1182.05","0.00752682","64.94754","27.1"
"0.906619","1184.17","0.00755477","65.0643","27.2"
"0.909972","1186.08","0.00758271","65.1694","27.3"
"0.913326","1187.77","0.00761066","65.2619","27.4"
"0.916679","1189.1","0.0076386","65.3349","27.5"
"0.919986","1190.81","0.00766616","65.4294","27.6"
"0.923339","1192.24","0.0076941","65.50772","27.7"
"0.926599","1193.4","0.00772127","65.5713","27.8"
"0.929999","1195.46","0.00774961","65.68468","27.9"
"0.933259","1196.88","0.00777677","65.7624","28"
"0.936659","1199.06","0.00780511","65.88266","28.1"
"0.93992","1200.3","0.00783227","65.9504","28.2"
"0.943366","1202.19","0.007861","66.0547","28.3"
"0.946626","1203.22","0.00788816","66.1112","28.4"
"0.950026","1205.57","0.0079165","66.2401","28.5"
"0.953286","1206.39","0.00794367","66.2851","28.6"
"0.956686","1208.22","0.007972","66.3857","28.7"
"0.959947","1209.44","0.00799917","66.4525","28.8"
"0.9633","1211.01","0.0080275","66.5389","28.9"
"0.966607","1212.44","0.00805467","66.6175","29"
"0.970007","1214.32","0.008083","66.7208","29.1"
"0.973313","1215.76","0.00811056","66.8002","29.2"
"0.97662","1217.39","0.00813811","66.8893","29.3"
"0.979974","1218.86","0.00816606","66.9701","29.4"
"0.98328","1220.34","0.00819361","67.0517","29.5"
"0.986634","1221.46","0.00822156","67.113","29.6"
"0.989941","1222.9","0.00824912","67.1922","29.7"
"0.993341","1224.82","0.00827745","67.29756","29.8"
"0.996647","1226.21","0.00830501","67.3742","29.9"
"1","1227.67","0.00833295","67.4542","30"
"1.00326","1228.48","0.00836012","67.4991","30.1"
"1.00666","1230.95","0.00838884","67.63436","30.2"
"1.00997","1231.81","0.00841601","67.68212","30.3"
"1.01332","1233.52","0.00844395","67.7758","30.4"
"1.01658","1234.57","0.00847112","67.8334","30.5"
"1.01998","1236.57","0.00849945","67.94316","30.6"
"1.02324","1237.54","0.00852701","67.9969","30.7"
"1.02664","1239.22","0.00855534","68.0889","30.8"
"1.02995","1240.43","0.00858251","68.1556","30.9"
"1.03335","1242.43","0.00861084","68.2652","31"
"1.03665","1243.64","0.0086384","68.3318","31.1"
"1.04001","1245.1","0.00866635","68.4122","31.2"
"1.04331","1246.15","0.0086939","68.4696","31.3"
"1.04667","1247.93","0.00872185","68.56764","31.4"
"1.04998","1249.31","0.0087494","68.6433","31.5"
"1.05328","1250.59","0.00877696","68.714","31.6"
"1.05664","1251.81","0.00880491","68.7806","31.7"
"1.05994","1253.32","0.00883246","68.8637","31.8"
"1.0633","1255.24","0.00886079","68.9694","31.9"
"1.0666","1256.37","0.00888835","69.03144","32"
"1.07005","1258.25","0.00891668","69.1348","32.1"
"1.07331","1259.15","0.00894385","69.18412","32.2"
"1.07666","1261.19","0.00897219","69.296","32.3"
"1.07992","1261.78","0.00899897","69.3285","32.4"
"1.08332","1263.57","0.0090273","69.42696","32.5"
"1.08658","1264.62","0.00905447","69.4847","32.6"
"1.08994","1266.22","0.0090828","69.5726","32.7"
"1.09324","1267.45","0.00910997","69.64","32.8"
"1.09664","1269.23","0.0091383","69.738","32.9"
"1.09995","1270.3","0.00916586","69.7966","33"
"1.1033","1271.96","0.00919419","69.8881","33.1"
"1.10666","1272.95","0.00922175","69.94204","33.2"
"1.11001","1243.59","0.00924969","68.3288","33.3"
"1.11332","1243.86","0.00927725","68.34396","33.4"
"1.11662","1247.08","0.0093048","68.521","33.5"
"1.11998","1250.74","0.00933275","68.7222","33.6"
"1.12328","1254.68","0.00936069","68.9386","33.7"
"1.12664","1257.99","0.00938825","69.1205","33.8"
"1.1299","1260.65","0.00941581","69.2667","33.9"
"1.1333","1264.39","0.00944414","69.472","34"
"1.1366","1266.93","0.0094717","69.61128","34.1"
"1.14","1269.52","0.00949964","69.754","34.2"
"1.14326","1271.47","0.00952681","69.861","34.3"
"1.14666","1274.52","0.00955553","70.0288","34.4"
"1.14997","1276.09","0.0095827","70.1148","34.5"
"1.15332","1278.42","0.00961064","70.2429","34.6"
"1.15658","1279.67","0.00963781","70.31128","34.7"
"1.15998","1282.39","0.00966614","70.46084","34.8"
"1.16329","1283.88","0.0096937","70.543","34.9"
"1.16664","1285.86","0.00972203","70.6516","35"
"1.16995","1286.78","0.0097492","70.7022","35.1"
"1.1733","1289.26","0.00977715","70.8384","35.2"
"1.17661","1290.27","0.0098047","70.894","35.3"
"1.17996","1292.23","0.00983265","71.0015","35.4"
"1.18332","1293.49","0.00986059","71.071","35.5"
"1.18667","1295.37","0.00988854","71.1743","35.6"
"1.18998","1297.02","0.0099161","71.2648","35.7"
"1.19328","1298.12","0.00994365","71.3254","35.8"
"1.19668","1299.57","0.00997198","71.4051","35.9"
"1.19994","1300.98","0.00999954","71.4825","36"
"1.2033","1302.36","0.0100275","71.5581","36.1"
"1.2066","1303.47","0.0100547","71.6193","36.2"
"1.20996","1304.99","0.010083","71.703","36.3"
"1.21322","1305.89","0.0101102","71.752","36.4"
"1.21662","1307.78","0.0101385","71.8559","36.5"
"1.21993","1308.78","0.0101657","71.9108","36.6"
"1.22333","1310.63","0.0101944","72.0128","36.7"
"1.22663","1311.38","0.0102215","72.05368","36.8"
"1.22999","1313.2","0.0102499","72.1536","36.9"
"1.23329","1313.99","0.010277","72.19744","37"
"1.23669","1315.74","0.0103054","72.2932","37.1"
"1.23995","1316.23","0.0103325","72.3205","37.2"
"1.24326","1317.9","0.0103605","72.4119","37.3"
"1.24657","1318.87","0.010388","72.4654","37.4"
"1.24997","1320.43","0.010416","72.55088","37.5"
"1.25327","1321.56","0.0104439","72.6133","37.6"
"1.25663","1323.19","0.0104715","72.7028","37.7"
"1.26003","1324.91","0.0104998","72.7973","37.8"
"1.26333","1325.88","0.0105278","72.8505","37.9"
"1.26669","1327.21","0.0105553","72.9238","38"
"1.26995","1327.82","0.0105825","72.9569","38.1"
"1.2733","1329.57","0.0106108","73.05324","38.2"
"1.27661","1330.38","0.010638","73.0981","38.3"
"1.28001","1331.88","0.0106663","73.1803","38.4"
"1.28322","1332.31","0.0106935","73.2038","38.5"
"1.28667","1334.3","0.0107218","73.3131","38.6"
"1.28993","1335.26","0.010749","73.36576","38.7"
"1.29333","1337.12","0.0107777","73.468","38.8"
"1.29663","1337.61","0.0108049","73.495","38.9"
"1.30003","1339.26","0.0108332","73.5856","39"
"1.30329","1339.95","0.0108604","73.6239","39.1"
"1.30665","1341.54","0.0108883","73.7112","39.2"
"1.30991","1342.3","0.0109159","73.75272","39.3"
"1.31331","1343.87","0.0109438","73.83924","39.4"
"1.31661","1344.81","0.0109714","73.89076","39.5"
"1.31992","1345.96","0.0109993","73.9539","39.6"
"1.32327","1346.99","0.0110273","74.0102","39.7"
"1.32663","1348.28","0.0110548","74.0814","39.8"
"1.32998","1349.49","0.0110828","74.1475","39.9"
"1.33329","1350.57","0.0111103","74.2072","40"
"1.33669","1351.89","0.0111387","74.2795","40.1"
"1.33995","1352.57","0.0111662","74.3173","40.2"
"1.3433","1354.09","0.0111942","74.4003","40.3"
"1.34661","1354.79","0.0112213","74.43884","40.4"
"1.35001","1356.37","0.0112497","74.526","40.5"
"1.35327","1356.86","0.0112768","74.5526","40.6"
"1.35667","1358.59","0.0113052","74.648","40.7"
"1.35993","1359.11","0.0113323","74.6766","40.8"
"1.36333","1360.97","0.0113607","74.7784","40.9"
"1.36659","1361.48","0.0113878","74.8067","41"
"1.36999","1362.82","0.0114162","74.8804","41.1"
"1.37325","1363.96","0.0114437","74.9429","41.2"
"1.37669","1365.88","0.0114721","75.0481","41.3"
"1.37996","1366.23","0.0114996","75.0674","41.4"
"1.38331","1367.47","0.0115272","75.1356","41.5"
"1.38662","1368.58","0.0115547","75.1967","41.6"
"1.39002","1370.25","0.0115831","75.2887","41.7"
"1.39332","1370.9","0.0116106","75.3241","41.8"
"1.39663","1371.83","0.0116382","75.3754","41.9"
"1.39994","1373.26","0.0116661","75.4541","42"
"1.40329","1374.37","0.0116937","75.5151","42.1"
"1.40664","1375.6","0.011722","75.5824","42.2"
"1.40995","1376.55","0.0117492","75.6344","42.3"
"1.41335","1378.21","0.0117775","75.7259","42.4"
"1.41666","1378.96","0.0118051","75.7668","42.5"
"1.42006","1380.39","0.0118334","75.8453","42.6"
"1.42327","1380.8","0.0118602","75.8681","42.7"
"1.42667","1382.25","0.0118885","75.94784","42.8"
"1.42993","1382.79","0.0119157","75.9772","42.9"
"1.43333","1384.31","0.011944","76.0608","43"
"1.43659","1384.64","0.0119712","76.07932","43.1"
"1.43994","1386.28","0.0119995","76.1692","43.2"
"1.44325","1387.08","0.0120267","76.2131","43.3"
"1.44665","1388.66","0.012055","76.3002","43.4"
"1.44996","1389.52","0.012083","76.3475","43.5"
"1.45336","1390.59","0.0121109","76.4058","43.6"
"1.45666","1391.45","0.0121385","76.4532","43.7"
"1.45997","1392.39","0.012166","76.50476","43.8"
"1.46328","1393.26","0.012194","76.5525","43.9"
"1.46663","1394.31","0.0122215","76.6105","44"
"1.46994","1395.66","0.0122495","76.6845","44.1"
"1.47324","1396.64","0.0122766","76.7384","44.2"
"1.47664","1398.11","0.012305","76.8195","44.3"
"1.47995","1398.75","0.0123325","76.85436","44.4"
"1.48335","1400.41","0.0123609","76.9457","44.5"
"1.48661","1401.1","0.012388","76.9837","44.6"
"1.49006","1402.6","0.0124168","77.0658","44.7"
"1.49332","1402.98","0.0124439","77.0869","44.8"
"1.49667","1404.31","0.0124719","77.16","44.9"
"1.49993","1404.88","0.012499","77.19136","45"
"1.50333","1406.57","0.0125274","77.284","45.1"
"1.50659","1407.02","0.0125549","77.3086","45.2"
"1.50994","1408.29","0.0125829","77.3787","45.3"
"1.51325","1409.23","0.01261","77.43028","45.4"
"1.51665","1411.11","0.0126388","77.53356","45.5"
"1.51996","1411.45","0.0126659","77.5523","45.6"
"1.52331","1412.59","0.0126939","77.615","45.7"
"1.52662","1413.43","0.0127214","77.66088","45.8"
"1.52997","1414.92","0.0127498","77.74264","45.9"
"1.53333","1415.57","0.0127773","77.7786","46"
"1.53659","1416.32","0.0128049","77.8195","46.1"
"1.53994","1417.56","0.0128328","77.8877","46.2"
"1.54329","1418.6","0.0128604","77.9449","46.3"
"1.54665","1419.57","0.0128887","77.9984","46.4"
"1.54991","1420.31","0.0129159","78.039","46.5"
"1.55331","1421.71","0.0129438","78.1157","46.6"
"1.55657","1422.52","0.0129714","78.1604","46.7"
"1.55997","1423.77","0.0129997","78.2291","46.8"
"1.56327","1424.22","0.0130269","78.254","46.9"
"1.56667","1425.66","0.0130552","78.33312","47"
"1.56993","1426.15","0.0130828","78.36","47.1"
"1.57333","1427.77","0.0131107","78.4491","47.2"
"1.57659","1428.07","0.0131383","78.4656","47.3"
"1.57999","1429.27","0.0131666","78.5312","47.4"
"1.5833","1430.07","0.0131938","78.5753","47.5"
"1.58665","1431.54","0.0132217","78.6559","47.6"
"1.58991","1431.88","0.0132489","78.6749","47.7"
"1.59327","1433.26","0.0132772","78.7505","47.8"
"1.59662","1434.03","0.0133048","78.7929","47.9"
"1.59993","1435.27","0.0133327","78.8609","48"
"1.60333","1436.64","0.0133607","78.9362","48.1"
"1.60663","1437.41","0.0133886","78.9786","48.2"
"1.61003","1438.76","0.0134166","79.05264","48.3"
"1.61329","1439.43","0.0134437","79.0894","48.4"
"1.61669","1440.7","0.0134721","79.1596","48.5"
"1.61995","1441.19","0.0134992","79.1862","48.6"
"1.62331","1442.48","0.0135272","79.25732","48.7"
"1.62657","1443.15","0.0135543","79.2939","48.8"
"1.62997","1444.75","0.0135831","79.3817","48.9"
"1.63327","1445.41","0.0136102","79.4183","49"
"1.63667","1446.67","0.0136386","79.4876","49.1"
"1.63993","1447.34","0.0136657","79.5243","49.2"
"1.64338","1448.87","0.0136944","79.6082","49.3"
"1.64664","1449.25","0.013722","79.629","49.4"
"1.64999","1450.33","0.0137496","79.6885","49.5"
"1.65325","1450.63","0.0137767","79.7051","49.6"
"1.65665","1452.24","0.0138051","79.7931","49.7"
"1.65996","1452.94","0.0138326","79.8321","49.8"
"1.66327","1453.55","0.0138606","79.8655","49.9"
"1.66657","1454.45","0.0138881","79.91504","50"
"1.66993","1455.87","0.0139157","79.9929","50.1"
"1.67333","1456.91","0.013944","80.0498","50.2"
"1.67663","1457.27","0.0139716","80.0698","50.3"
"1.67999","1458.56","0.0139999","80.1406","50.4"
"1.68329","1459.27","0.0140271","80.1797","50.5"
"1.68665","1460.61","0.014055","80.2532","50.6"
"1.68991","1460.93","0.0140822","80.2711","50.7"