File: experimental_data/tensile_specimen_test_data/tensile_test_data/20250312/original_data/SSS 6 03-12-25 16 18 12 下午/数采：横梁, … - (实时值).csv
"文件路径: C:\Users\Lenovo\Desktop\Wayne\20250312\原始数据\SSS 6 03-12-25 16 18 12 下午\数采：横梁, … - (实时值).csv   "
"试验: 拉伸试验（UNIVER）      视频引伸计采集变形-W 1"
"试验运行: SSS 6"
"日期: 2025/3/12 12:54:23"
""
""
"横梁 ","力 ","视频引伸计变形 ","应变 ","时间 "
"mm","N","mm","mm/mm","sec"
"0.00274789","31.1616","0.0008","1.6e-05","0.1"
"0.0164408","66.1131","0.0107","0.000214","0.5"
"0.0298542","106.399","0.0318","0.000636","0.9"
"0.0431745","146.196","0.0453","0.000906","1.3"
"0.0565414","185.814","0.0615","0.00123","1.7"
"0.0699083","225.081","0.0768","0.001536","2.1"
"0.0832286","263.996","0.0866","0.001732","2.5"
"0.0965955","302.476","0.0994","0.001988","2.9"
"0.109916","340.203","0.109","0.00218","3.3"
"0.123236","377.796","0.1207","0.002414","3.7"
"0.136556","414.323","0.1329","0.002658","4.1"
"0.149877","450.368","0.1415","0.00283","4.5"
"0.163197","485.753","0.1527","0.003054","4.9"
"0.176517","520.688","0.1611","0.003222","5.3"
"0.189884","555.29","0.1711","0.003422","5.7"
"0.203204","589.522","0.1797","0.003594","6.1"
"0.216618","623.644","0.1902","0.003804","6.5"
"0.229938","656.839","0.1999","0.003998","6.9"
"0.243259","689.511","0.2079","0.004158","7.3"
"0.256625","722.062","0.2173","0.004346","7.7"
"0.269899","753.729","0.2275","0.00455","8.1"
"0.283219","784.915","0.2348","0.004696","8.5"
"0.296586","815.724","0.2446","0.004892","8.9"
"0.30986","845.645","0.2515","0.00503","9.3"
"0.323227","874.825","0.2613","0.005226","9.7"
"0.336547","902.986","0.2684","0.005368","10.1"
"0.349914","929.771","0.2787","0.005574","10.5"
"0.363234","955.25","0.288","0.00576","10.9"
"0.376601","979.136","0.2957","0.005914","11.3"
"0.389922","1001.61","0.3047","0.006094","11.7"
"0.403242","1022.82","0.3121","0.006242","12.1"
"0.416562","1042.72","0.3214","0.006428","12.5"
"0.429836","1061.58","0.3307","0.006614","12.9"
"0.443203","1079.38","0.3389","0.006778","13.3"
"0.456523","1096.27","0.3484","0.006968","13.7"
"0.469843","1112.38","0.3559","0.007118","14.1"
"0.483257","1128.1","0.3648","0.007296","14.5"
"0.496577","1142.89","0.3748","0.007496","14.9"
"0.509944","1156.89","0.3822","0.007644","15.3"
"0.523311","1170.75","0.3913","0.007826","15.7"
"0.536585","1183.59","0.3986","0.007972","16.1"
"0.549905","1196.55","0.4079","0.008158","16.5"
"0.563225","1208.77","0.418","0.00836","16.9"
"0.576545","1220.66","0.4255","0.00851","17.3"
"0.589866","1231.98","0.4358","0.008716","17.7"
"0.603233","1243.37","0.4424","0.008848","18.1"
"0.616553","1254.31","0.4528","0.009056","18.5"
"0.62992","1264.78","0.4637","0.009274","18.9"
"0.643287","1275.24","0.471","0.00942","19.3"
"0.65656","1285.56","0.4803","0.009606","19.7"
"0.669927","1295.35","0.4876","0.009752","20.1"
"0.683248","1304.77","0.4973","0.009946","20.5"
"0.696521","1314.01","0.5051","0.010102","20.9"
"0.709888","1323","0.5142","0.010284","21.3"
"0.723209","1331.89","0.524","0.01048","21.7"
"0.736529","1340.86","0.5316","0.010632","22.1"
"0.749896","1349.5","0.5409","0.010818","22.5"
"0.763263","1357.75","0.5485","0.01097","22.9"
"0.776583","1366.08","0.5585","0.01117","23.3"
"0.78995","1374.45","0.5683","0.011366","23.7"
"0.80327","1382.12","0.576","0.01152","24.1"
"0.81659","1389.65","0.5855","0.01171","24.5"
"0.829957","1397.4","0.5923","0.011846","24.9"
"0.843231","1404.44","0.6021","0.012042","25.3"
"0.856505","1411.56","0.6116","0.012232","25.7"
"0.869872","1419.1","0.6192","0.012384","26.1"
"0.883192","1425.67","0.629","0.01258","26.5"
"0.896559","1432.89","0.6362","0.012724","26.9"
"0.909926","1439.44","0.6467","0.012934","27.3"
"0.923246","1446.33","0.6554","0.013108","27.7"
"0.936566","1452.78","0.663","0.01326","28.1"
"0.949933","1458.96","0.6722","0.013444","28.5"
"0.963207","1465.08","0.6798","0.013596","28.9"
"0.976574","1471.39","0.6895","0.01379","29.3"
"0.989894","1477.3","0.6999","0.013998","29.7"
"1.00317","1483.35","0.7069","0.014138","30.1"
"1.01658","1489.1","0.7166","0.014332","30.5"
"1.0299","1494.55","0.7233","0.014466","30.9"
"1.04322","1500.52","0.7331","0.014662","31.3"
"1.05664","1506.23","0.7402","0.014804","31.7"
"1.06996","1511.69","0.7498","0.014996","32.1"
"1.08328","1517.1","0.7602","0.015204","32.5"
"1.0966","1522.28","0.7679","0.015358","32.9"
"1.10992","1527.18","0.7773","0.015546","33.3"
"1.12319","1532.16","0.7841","0.015682","33.7"
"1.13656","1537.06","0.7944","0.015888","34.1"
"1.14988","1542.21","0.8025","0.01605","34.5"
"1.1632","1546.93","0.8108","0.016216","34.9"
"1.17661","1551.42","0.8201","0.016402","35.3"
"1.18988","1556.16","0.8304","0.016544","35.7"
"1.20325","1560.9","0.8378","0.016756","36.1"
"1.21662","1565.55","0.8477","0.016954","36.5"
"1.22989","1569.8","0.8549","0.017098","36.9"
"1.24326","1574.15","0.8634","0.017268","37.3"
"1.25653","1578.54","0.8709","0.017418","37.7"
"1.26985","1582.76","0.8803","0.017606","38.1"
"1.28322","1587.16","0.891","0.01782","38.5"
"1.29654","1591.02","0.8984","0.017968","38.9"
"1.30991","1595.21","0.9071","0.018142","39.3"
"1.32327","1599.34","0.9139","0.018278","39.7"
"1.33664","1603.56","0.9239","0.018478","40.1"
"1.34991","1607.12","0.9337","0.018674","40.5"
"1.36328","1611.11","0.9395","0.01879","40.9"
"1.37656","1614.96","0.9495","0.01899","41.3"
"1.38988","1618.63","0.9569","0.019138","41.7"
"1.40324","1622.49","0.9675","0.01935","42.1"
"1.41652","1626.07","0.9743","0.019486","42.5"
"1.42988","1629.71","0.9837","0.019674","42.9"
"1.44325","1633.42","0.9933","0.019866","43.3"
"1.45657","1637.18","1.0005","0.02001","43.7"
"1.46994","1640.77","1.0103","0.020206","44.1"
"1.48326","1644.38","1.0217","0.020434","44.5"
"1.49658","1647.91","1.0279","0.020558","44.9"
"1.5099","1651.16","1.0374","0.020748","45.3"
"1.52322","1654.38","1.0445","0.02089","45.7"
"1.53654","1657.74","1.0546","0.021092","46.1"
"1.54986","1660.94","1.0611","0.021222","46.5"
"1.56323","1664.25","1.0708","0.021416","46.9"
"1.57655","1667.63","1.0805","0.02161","47.3"
"1.58996","1671.16","1.0884","0.021768","47.7"
"1.60323","1674.05","1.0978","0.021956","48.1"
"1.61655","1677.41","1.1046","0.022092","48.5"
"1.62997","1680.68","1.1143","0.022286","48.9"
"1.64324","1683.6","1.1236","0.022472","49.3"
"1.65656","1686.47","1.1317","0.022634","49.7"
"1.66993","1689.49","1.1412","0.022824","50.1"
"1.6832","1692.68","1.1491","0.022982","50.5"
"1.69652","1695.56","1.1584","0.023168","50.9"
"1.70989","1698.59","1.1681","0.023362","51.3"
"1.72326","1701.55","1.1751","0.023502","51.7"
"1.73658","1704.69","1.1852","0.023704","52.1"
"1.74999","1707.47","1.1922","0.023844","52.5"
"1.76326","1710.4","1.2022","0.024044","52.9"
"1.77658","1713.41","1.212","0.02424","53.3"
"1.7899","1716.03","1.2186","0.024372","53.7"
"1.80318","1719.04","1.2289","0.024578","54.1"
"1.81654","1721.75","1.236","0.02472","54.5"
"1.82986","1724.34","1.2453","0.024906","54.9"
"1.84319","1727.03","1.2527","0.025054","55.3"
"1.85655","1729.79","1.2623","0.025246","55.7"
"1.86992","1732.64","1.2721","0.025442","56.1"
"1.88329","1735.49","1.28","0.0256","56.5"
"1.89665","1738.2","1.2885","0.02577","56.9"
"1.90997","1740.69","1.2996","0.025992","57.3"
"1.92325","1743.17","1.3062","0.026124","57.7"
"1.93657","1745.93","1.3156","0.026312","58.1"
"1.94989","1748.58","1.3236","0.026472","58.5"
"1.96321","1751.16","1.3332","0.026664","58.9"
"1.97657","1753.7","1.3409","0.026818","59.3"
"1.98989","1756.32","1.3496","0.026992","59.7"
"2.00326","1758.76","1.3593","0.027186","60.1"
"2.01658","1761.73","1.3667","0.027334","60.5"
"2.0299","1764.25","1.3763","0.027526","60.9"
"2.04327","1766.73","1.3859","0.027718","61.3"
"2.05659","1768.98","1.3935","0.02787","61.7"
"2.06986","1771.46","1.4031","0.028062","62.1"
"2.08318","1773.85","1.4101","0.028202","62.5"
"2.0965","1776.27","1.4196","0.028392","62.9"
"2.10982","1778.54","1.4269","0.028538","63.3"
"2.12324","1781.37","1.4365","0.02873","63.7"
"2.1366","1783.75","1.4465","0.02893","64.1"
"2.14992","1786.24","1.4544","0.029088","64.5"
"2.16329","1788.86","1.4637","0.029274","64.9"
"2.17661","1790.92","1.4708","0.029416","65.3"
"2.18993","1793.32","1.4804","0.029608","65.7"
"2.2033","1795.82","1.4897","0.029794","66.1"
"2.21657","1798.01","1.4967","0.029934","66.5"
"2.22989","1800.08","1.5068","0.030136","66.9"
"2.24321","1802.77","1.5146","0.030292","67.3"
"2.25658","1804.81","1.524","0.03048","67.7"
"2.2699","1807.15","1.5336","0.030672","68.1"
"2.28327","1809.6","1.5413","0.030826","68.5"
"2.29659","1812.02","1.5511","0.031022","68.9"
"2.30991","1814.25","1.5581","0.031162","69.3"
"2.32327","1816.34","1.5684","0.031368","69.7"
"2.33655","1818.81","1.5748","0.031496","70.1"
"2.34992","1821.32","1.5846","0.031692","70.5"
"2.36319","1823.13","1.5941","0.031882","70.9"
"2.37651","1825.58","1.6009","0.032018","71.3"
"2.38988","1827.66","1.6116","0.032232","71.7"
"2.4032","1829.83","1.6189","0.032378","72.1"
"2.41656","1832.23","1.6285","0.03257","72.5"
"2.42993","1834.36","1.638","0.03276","72.9"
"2.4433","1836.83","1.6456","0.032912","73.3"
"2.45662","1839.12","1.6552","0.033104","73.7"
"2.46994","1841.2","1.6625","0.03325","74.1"
"2.48326","1843.38","1.6715","0.03343","74.5"
"2.49653","1845.26","1.6823","0.033646","74.9"
"2.5099","1847.63","1.6893","0.033786","75.3"
"2.52317","1849.3","1.6986","0.033972","75.7"
"2.53654","1851.57","1.7061","0.034122","76.1"
"2.54991","1853.87","1.7164","0.034328","76.5"
"2.56323","1855.91","1.7257","0.034514","76.9"
"2.57664","1858.28","1.7334","0.034668","77.3"
"2.58996","1860.4","1.7432","0.034864","77.7"
"2.60323","1862.44","1.7505","0.03501","78.1"
"2.61655","1864.29","1.7599","0.035198","78.5"
"2.62987","1866.51","1.7703","0.035406","78.9"
"2.64319","1868.36","1.7772","0.035544","79.3"
"2.65656","1870.55","1.7873","0.035746","79.7"
"2.66988","1872.65","1.794","0.03588","80.1"
"2.6832","1874.76","1.8033","0.036066","80.5"
"2.69662","1877.03","1.813","0.03622","80.9"
"2.70994","1879.24","1.8213","0.036426","81.3"
"2.72326","1880.81","1.8304","0.036608","81.7"
"2.73662","1883.17","1.8377","0.036754","82.1"
"2.7499","1885.03","1.8479","0.036958","82.5"
"2.76322","1887.16","1.8573","0.037146","82.9"
"2.77654","1888.97","1.8639","0.037278","83.3"
"2.78986","1891.03","1.8738","0.037476","83.7"
"2.80322","1892.83","1.8817","0.037634","84.1"
"2.81659","1894.98","1.8917","0.037834","84.5"
"2.82991","1896.98","1.9015","0.03803","84.9"
"2.84323","1898.96","1.9089","0.038178","85.3"
"2.8566","1901.29","1.9178","0.038356","85.7"
"2.86992","1903.07","1.9257","0.038514","86.1"
"2.88324","1904.97","1.9351","0.038702","86.5"
"2.89661","1906.82","1.9423","0.038846","86.9"
"2.90988","1908.74","1.9515","0.03903","87.3"
"2.9232","1910.87","1.9619","0.039238","87.7"
"2.93652","1912.71","1.9695","0.03939","88.1"
"2.94984","1914.4","1.9786","0.039572","88.5"
"2.96325","1916.71","1.986","0.03972","88.9"
"2.97657","1918.46","1.9964","0.039928","89.3"
"2.98994","1920.54","2.1163","0.042326","89.7"
"3.00326","1922.24","2.1198","0.042396","90.1"
"3.01658","1924.22","2.1294","0.042588","90.5"
"3.0299","1926.1","2.1363","0.042726","90.9"
"3.04322","1927.95","2.1436","0.042872","91.3"
"3.05654","1929.62","2.1552","0.043104","91.7"
"3.06986","1931.45","2.1633","0.043266","92.1"
"3.08323","1933.25","2.1724","0.043448","92.5"
"3.09655","1935.28","2.1799","0.043598","92.9"
"3.10992","1937.27","2.1904","0.043808","93.3"
"3.12328","1939","2.1987","0.043974","93.7"
"3.13661","1940.87","2.2097","0.044194","94.1"
"3.14997","1943.06","2.2164","0.044328","94.5"
"3.16325","1944.89","2.225","0.0445","94.9"
"3.17652","1946.67","2.2322","0.044644","95.3"
"3.18989","1948.4","2.2425","0.04485","95.7"
"3.20316","1949.97","2.25","0.045","96.1"
"3.21653","1951.75","2.2613","0.045226","96.5"
"3.22989","1953.57","2.2694","0.045388","96.9"
"3.24326","1955.48","2.277","0.04554","97.3"
"3.25658","1957.47","2.2851","0.045702","97.7"
"3.26995","1959.05","2.2952","0.045904","98.1"
"3.28327","1961.1","2.3055","0.04611","98.5"
"3.29654","1962.57","2.3126","0.046252","98.9"
"3.30991","1964.4","2.3236","0.046472","99.3"
"3.32318","1966.07","2.3284","0.046568","99.7"
"3.33655","1967.63","2.3375","0.04675","100.1"
"3.34992","1969.31","2.3472","0.046944","100.5"
"3.36324","1971.39","2.354","0.04708","100.9"
"3.3766","1973.12","2.3638","0.047276","101.3"
"3.38992","1974.93","2.3714","0.047428","101.7"
"3.40329","1976.71","2.3829","0.047658","102.1"
"3.41661","1978.5","2.3926","0.047852","102.5"
"3.42993","1980.15","2.3988","0.047976","102.9"
"3.4432","1981.79","2.4091","0.048182","103.3"
"3.45653","1983.42","2.4153","0.048306","103.7"
"3.46989","1985.22","2.4247","0.048494","104.1"
"3.48317","1986.67","2.435","0.0487","104.5"
"3.49658","1988.66","2.4434","0.048868","104.9"
"3.5099","1990.02","2.4532","0.049064","105.3"
"3.52322","1992","2.4595","0.04919","105.7"
"3.53663","1993.89","2.4678","0.049356","106.1"
"3.54995","1995.51","2.4783","0.049566","106.5"
"3.56327","1996.75","2.4855","0.04971","106.9"
"3.57659","1998.79","2.4959","0.049918","107.3"
"3.58991","2000.28","2.5035","0.05007","107.7"
"3.60319","2001.97","2.5122","0.050244","108.1"
"3.61655","2003.46","2.5212","0.050424","108.5"
"3.62988","2005.08","2.5272","0.050544","108.9"
"3.6432","2006.86","2.5383","0.050766","109.3"
"3.65661","2008.5","2.5466","0.050932","109.7"
"3.66993","2010.14","2.5562","0.051124","110.1"
"3.68325","2011.85","2.5635","0.05127","110.5"
"3.69662","2013.52","2.572","0.05144","110.9"
"3.70989","2015.02","2.583","0.05166","111.3"
"3.72326","2016.8","2.5884","0.051768","111.7"
"3.73653","2018.39","2.5983","0.051966","112.1"
"3.74985","2019.81","2.6056","0.052112","112.5"
"3.76322","2021.22","2.6157","0.052314","112.9"
"3.77654","2022.84","2.6268","0.052536","113.3"
"3.78991","2024.52","2.6321","0.052642","113.7"
"3.80327","2026.07","2.6427","0.052854","114.1"
"3.81664","2027.88","2.6494","0.052988","114.5"
"3.82991","2029.31","2.6588","0.053176","114.9"
"3.84328","2031.19","2.668","0.05336","115.3"
"3.8566","2032.49","2.6749","0.053498","115.7"
"3.86987","2034","2.685","0.0537","116.1"
"3.88324","2035.44","2.6919","0.053838","116.5"
"3.89651","2036.69","2.7023","0.054046","116.9"
"3.90988","2038.38","2.7105","0.05421","117.3"
"3.92325","2040.08","2.7175","0.05435","117.7"
"3.93657","2041.67","2.7278","0.054556","118.1"
"3.94994","2043.22","2.7362","0.054724","118.5"
"3.96326","2044.75","2.7451","0.054902","118.9"
"3.97658","2046.17","2.7541","0.055082","119.3"
"3.9899","2047.51","2.7616","0.055232","119.7"
"4.00322","2049.12","2.7711","0.055422","120.1"
"4.01649","2050.45","2.7791","0.055582","120.5"
"4.02986","2052.01","2.7878","0.055756","120.9"
"4.04322","2053.42","2.7977","0.055906","121.3"
"4.05654","2055","2.806","0.05612","121.7"
"4.06996","2056.81","2.8141","0.056282","122.1"
"4.08328","2058.22","2.8226","0.056452","122.5"
"4.0966","2059.65","2.8342","0.056684","122.9"
"4.10997","2061.47","2.8381","0.056762","123.3"
"4.12329","2062.63","2.847","0.05694","123.7"
"4.13656","2064.17","2.8552","0.057104","124.1"
"4.14988","2065.44","2.8632","0.057264","124.5"
"4.1632","2067.08","2.8736","0.057472","124.9"
"4.17652","2068.42","2.88","0.0576","125.3"
"4.18989","2069.83","2.8904","0.057808","125.7"
"4.20325","2071.16","2.8999","0.057998","126.1"
"4.21657","2072.66","2.9079","0.058158","126.5"
"4.22994","2074.23","2.9173","0.058346","126.9"
"4.24326","2075.5","2.9242","0.058484","127.3"
"4.25658","2077.16","2.9333","0.058666","127.7"
"4.2699","2078.23","2.943","0.05886","128.1"
"4.28322","2079.77","2.9496","0.058992","128.5"
"4.29654","2080.95","2.9595","0.05919","128.9"
"4.30986","2082.33","2.9657","0.059314","129.3"
"4.32318","2083.96","2.9768","0.059536","129.7"
"4.3366","2085.43","2.9854","0.059708","130.1"
"4.34992","2086.67","2.9939","0.059878","130.5"
"4.36328","2088.13","3.0001","0.060002","130.9"
"4.3766","2089.51","3.0072","0.060144","131.3"
"4.38997","2090.89","3.0179","0.060358","131.7"
"4.40324","2092.25","3.0279","0.060558","132.1"
"4.41656","2093.69","3.0353","0.060706","132.5"
"4.42989","2094.88","3.0437","0.060874","132.9"
"4.44316","2096.04","3.0517","0.061034","133.3"
"4.45657","2097.59","3.0606","0.061212","133.7"
"4.46985","2098.78","3.0707","0.061414","134.1"
"4.48326","2100.3","3.0793","0.061586","134.5"
"4.49663","2101.47","3.0876","0.061752","134.9"
"4.50995","2102.78","3.0955","0.06191","135.3"
"4.52327","2104.26","3.1051","0.062102","135.7"
"4.53659","2105.55","3.111","0.06222","136.1"
"4.54991","2106.69","3.1218","0.062436","136.5"
"4.56318","2107.91","3.1282","0.062564","136.9"
"4.57655","2109.12","3.1361","0.062722","137.3"
"4.58982","2110.09","3.1467","0.062934","137.7"
"4.60324","2111.81","3.1522","0.063044","138.1"
"4.6166","2113.26","3.1624","0.063248","138.5"
"4.62992","2114.32","3.1721","0.063442","138.9"
"4.64334","2115.94","3.1799","0.063598","139.3"
"4.65661","2117.03","3.1902","0.063804","139.7"
"4.66988","2118.36","3.1959","0.063918","140.1"
"4.68325","2119.66","3.2046","0.064092","140.5"
"4.69652","2120.42","3.2142","0.064284","140.9"
"4.70989","2121.62","3.2206","0.064412","141.3"
"4.72321","2122.86","3.2308","0.064616","141.7"
"4.73658","2124.31","3.2386","0.064772","142.1"
"4.7499","2125.5","3.2486","0.064972","142.5"
"4.76327","2126.67","3.2558","0.065116","142.9"
"4.77659","2127.84","3.2648","0.065296","143.3"
"4.78991","2129.08","3.2748","0.065496","143.7"
"4.80327","2130.36","3.283","0.06566","144.1"
"4.81655","2131.44","3.2933","0.065866","144.5"
"4.82987","2132.8","3.3007","0.066014","144.9"
"4.84319","2133.88","3.3097","0.066194","145.3"
"4.85651","2135.06","3.3196","0.066392","145.7"
"4.86992","2136.28","3.3233","0.066466","146.1"
"4.88319","2137.61","3.3344","0.066688","146.5"
"4.89656","2138.82","3.3418","0.066836","146.9"
"4.90993","2140.17","3.351","0.06702","147.3"
"4.92325","2141.1","3.3609","0.067218","147.7"
"4.93662","2142.3","3.3703","0.067406","148.1"
"4.94994","2143.57","3.3775","0.06755","148.5"
"4.96326","2144.95","3.3873","0.067746","148.9"
"4.97653","2145.74","3.3934","0.067868","149.3"
"4.9899","2147.01","3.405","0.0681","149.7"
"5.00322","2147.81","3.4103","0.068206","150.1"
"5.01654","2148.94","3.42","0.0684","150.5"
"5.02995","2150.38","3.429","0.068546","150.9"
"5.04327","2151.4","3.4368","0.068736","151.3"
"5.05664","2152.83","3.4468","0.068936","151.7"
"5.06996","2154.02","3.4549","0.069098","152.1"
"5.08323","2155.17","3.4633","0.069266","152.5"
"5.0966","2156.17","3.4706","0.069412","152.9"
"5.10987","2157.27","3.4812","0.069624","153.3"
"5.12319","2158.35","3.49","0.0698","153.7"
"5.13651","2159.48","3.4961","0.069922","154.1"
"5.14988","2160.17","3.5059","0.070118","154.5"
"5.1632","2161.27","3.5142","0.070284","154.9"
"5.17661","2162.73","3.5223","0.070446","155.3"
"5.18993","2163.62","3.5332","0.070624","155.7"
"5.20325","2164.72","3.5384","0.070768","156.1"
"5.21667","2165.86","3.5509","0.071018","156.5"
"5.2299","2166.98","3.5562","0.071124","156.9"
"5.24322","2167.82","3.5667","0.071334","157.3"
"5.25658","2168.71","3.5762","0.071524","157.7"
"5.2699","2169.74","3.5818","0.071636","158.1"
"5.28322","2170.99","3.5937","0.071874","158.5"
"5.29659","2171.92","3.597","0.07194","158.9"
"5.30991","2173.14","3.6088","0.072176","159.3"
"5.32328","2174.2","3.6165","0.072278","159.7"
"5.3366","2175.27","3.6249","0.072498","160.1"
"5.34992","2176.32","3.6332","0.072664","160.5"
"5.36324","2177.09","3.644","0.07288","160.9"
"5.37656","2178.14","3.6488","0.072976","161.3"
"5.38983","2178.81","3.6589","0.073178","161.7"
"5.4032","2179.65","3.6693","0.073386","162.1"
"5.41652","2180.73","3.6755","0.07351","162.5"
"5.42984","2181.66","3.6843","0.073686","162.9"
"5.44325","2182.98","3.6942","0.073884","163.3"
"5.45657","2183.69","3.7011","0.074022","163.7"
"5.46994","2184.73","3.7091","0.074182","164.1"
"5.48331","2185.58","3.7179","0.074358","164.5"
"5.49663","2186.29","3.7244","0.074488","164.9"
"5.5099","2187.31","3.7379","0.074758","165.3"
"5.52327","2188.28","3.7422","0.074844","165.7"
"5.53659","2189.07","3.7506","0.075012","166.1"
"5.54986","2190.08","3.7626","0.075252","166.5"
"5.56323","2191.18","3.7683","0.075366","166.9"
"5.57655","2192.24","3.7789","0.075578","167.3"
"5.58992","2193.11","3.7837","0.075674","167.7"
"5.60328","2194.21","3.7926","0.075852","168.1"
"5.61656","2195.07","3.8004","0.076008","168.5"
"5.62992","2196.21","3.8072","0.076144","168.9"
"5.64324","2197.05","3.8178","0.076356","169.3"
"5.65652","2197.71","3.8265","0.07653","169.7"
"5.66988","2198.72","3.8331","0.076662","170.1"
"5.68316","2199.42","3.8428","0.076856","170.5"
"5.69652","2200.36","3.8489","0.076978","170.9"
"5.70989","2201.41","3.8608","0.077216","171.3"
"5.72326","2202.35","3.8664","0.077328","171.7"
"5.73658","2203.49","3.8781","0.077562","172.1"
"5.74999","2204.57","3.8863","0.077726","172.5"
"5.76331","2205.19","3.8925","0.07785","172.9"
"5.77659","2205.96","3.9029","0.078058","173.3"
"5.78995","2206.71","3.9117","0.078234","173.7"
"5.80323","2207.48","3.9201","0.078402","174.1"
"5.8165","2208.19","3.9254","0.078508","174.5"
"5.82987","2209.04","3.9333","0.078666","174.9"
"5.84319","2210.19","3.9465","0.07893","175.3"
"5.8566","2211.25","3.9539","0.079078","175.7"
"5.86992","2212.07","3.962","0.07924","176.1"
"5.88329","2212.86","3.9678","0.079356","176.5"
"5.89656","2213.78","3.9763","0.079526","176.9"
"5.90993","2214.48","3.9865","0.07973","177.3"
"5.9232","2215.44","3.9947","0.079894","177.7"
"5.93657","2216.12","4.0047","0.080094","178.1"
"5.94989","2216.98","4.0128","0.080256","178.5"
"5.96316","2217.95","4.0217","0.080434","178.9"
"5.97658","2218.99","4.0268","0.080536","179.3"
"5.9899","2219.5","4.0367","0.080734","179.7"
"6.00326","2220.44","4.0469","0.080938","180.1"
"6.01663","2221.53","4.0538","0.081076","180.5"
"6.02995","2222.21","4.0647","0.081294","180.9"
"6.04327","2223.05","4.0716","0.081432","181.3"
"6.05659","2223.87","4.0801","0.081602","181.7"
"6.06991","2224.4","4.0862","0.081724","182.1"
"6.08319","2225.13","4.0957","0.081914","182.5"
"6.09655","2226.09","4.1019","0.082038","182.9"
"6.10992","2226.54","4.1137","0.082274","183.3"
"6.12319","2225.13","4.1187","0.082374","183.7"
"6.13661","2225.54","4.1249","0.082498","184.1"
"6.14988","2226.15","4.1361","0.082722","184.5"
"6.16325","2227.13","4.1442","0.082884","184.9"
"6.17661","2227.73","4.1547","0.083094","185.3"
"6.18989","2228.6","4.1623","0.083246","185.7"
"6.20326","2229.67","4.1689","0.083378","186.1"
"6.21653","2230.24","4.1769","0.083538","186.5"
"6.22985","2231.21","4.1891","0.083782","186.9"
"6.24322","2231.98","4.1975","0.08395","187.3"
"6.25654","2232.88","4.2063","0.084126","187.7"
"6.2699","2233.51","4.2138","0.084276","188.1"
"6.28327","2234.57","4.2216","0.084432","188.5"
"6.29664","2235.33","4.2299","0.084598","188.9"
"6.30991","2235.95","4.2406","0.084812","189.3"
"6.32328","2236.96","4.2508","0.085016","189.7"
"6.3366","2237.57","4.2575","0.08515","190.1"
"6.34987","2238.36","4.2618","0.085236","190.5"
"6.36324","2238.98","4.2753","0.085506","190.9"
"6.37651","2239.37","4.2815","0.08563","191.3"
"6.38988","2240.5","4.2921","0.085842","191.7"
"6.40325","2239.42","4.3002","0.086004","192.1"
"6.41657","2239.75","4.3043","0.086086","192.5"
"6.42993","2240.73","4.3127","0.086254","192.9"
"6.44325","2241.52","4.3206","0.086412","193.3"
"6.45662","2242.4","4.3322","0.086644","193.7"
"6.46989","2243.25","4.3394","0.086788","194.1"
"6.48321","2243.76","4.3468","0.086936","194.5"
"6.49653","2244.63","4.3525","0.08705","194.9"
"6.50985","2245.32","4.3639","0.087278","195.3"
"6.52322","2246.17","4.3686","0.087372","195.7"
"6.53654","2246.64","4.3794","0.087588","196.1"
"6.54996","2247.85","4.387","0.08774","196.5"
"6.56328","2248.68","4.3983","0.087966","196.9"
"6.5766","2249.21","4.401","0.08802","197.3"
"6.58996","2249.82","4.4112","0.088224","197.7"
"6.60324","2250.54","4.4202","0.088404","198.1"
"6.61656","2251.07","4.43","0.0886","198.5"
"6.62988","2251.71","4.4371","0.088742","198.9"
"6.6432","2252.31","4.4427","0.088854","199.3"
"6.65652","2253.12","4.455","0.0891","199.7"
"6.66993","2254.02","4.4654","0.089308","200.1"
"6.68325","2254.73","4.4707","0.089414","200.5"
"6.69657","2255.35","4.4787","0.089574","200.9"
"6.70999","2255.93","4.4858","0.089716","201.3"
"6.72326","2256.68","4.4935","0.08987","201.7"
"6.73658","2257.21","4.4999","0.089998","202.1"
"6.7499","2257.9","4.5121","0.090242","202.5"
"6.76317","2258.41","4.5217","0.090434","202.9"
"6.77654","2259.2","4.5282","0.090564","203.3"
"6.78986","2259.72","4.5386","0.090772","203.7"
"6.80318","2260.5","4.5418","0.090836","204.1"
"6.81655","2261.1","4.5503","0.091006","204.5"
"6.82991","2261.83","4.5626","0.091252","204.9"
"6.84328","2262.37","4.5661","0.091322","205.3"
"6.8566","2263.05","4.5762","0.091524","205.7"
"6.86997","2263.68","4.5828","0.091656","206.1"
"6.88324","2264.31","4.5942","0.091884","206.5"
"6.89661","2264.83","4.6041","0.092082","206.9"
"6.90988","2265.67","4.6093","0.092186","207.3"
"6.9232","2266.07","4.6169","0.092338","207.7"
"6.93657","2266.65","4.625","0.0925","208.1"
"6.94989","2266.97","4.6366","0.092732","208.5"
"6.96326","2267.87","4.6422","0.092828","208.9"
"6.97658","2268.24","4.6536","0.093072","209.3"
"6.9899","2269.1","4.6598","0.093196","209.7"
"7.00326","2269.73","4.6646","0.093292","210.1"
"7.01659","2270.04","4.6775","0.09355","210.5"
"7.02991","2270.81","4.6828","0.093656","210.9"
"7.04318","2271.24","4.693","0.09386","211.3"
"7.0565","2271.8","4.7051","0.094102","211.7"
"7.06982","2272.55","4.7091","0.094182","212.1"
"7.08323","2273.17","4.7202","0.094404","212.5"
"7.0966","2273.67","4.723","0.09446","212.9"
"7.10992","2274.5","4.736","0.09472","213.3"
"7.12333","2275.08","4.7459","0.094918","213.7"
"7.13661","2275.77","4.7502","0.095004","214.1"
"7.14993","2276.34","4.7595","0.09519","214.5"
"7.16329","2276.65","4.7689","0.095378","214.9"
"7.17657","2277.02","4.7749","0.095498","215.3"
"7.18989","2277.77","4.785","0.0957","215.7"
"7.20321","2278.21","4.7923","0.095846","216.1"
"7.21658","2278.81","4.8004","0.096008","216.5"
"7.2299","2279.48","4.8083","0.096166","216.9"
"7.24326","2280.09","4.8182","0.096364","217.3"
"7.25658","2280.76","4.8276","0.096552","217.7"
"7.2699","2281.39","4.8321","0.096642","218.1"
"7.28327","2281.99","4.8414","0.096828","218.5"
"7.29654","2282.38","4.8505","0.09701","218.9"
"7.30986","2282.73","4.857","0.09714","219.3"
"7.32318","2283.23","4.8698","0.097396","219.7"
"7.33651","2283.54","4.8762","0.097524","220.1"
"7.34992","2284.38","4.8838","0.097676","220.5"
"7.36324","2285.08","4.8923","0.097846","220.9"
"7.37661","2285.6","4.8974","0.097948","221.3"
"7.38993","2286.22","4.9092","0.098184","221.7"
"7.40329","2286.3","4.9177","0.098354","222.1"
"7.41661","2287.07","4.9231","0.098462","222.5"
"7.42993","2287.73","4.934","0.09868","222.9"
"7.44325","2287.96","4.9408","0.098816","223.3"
"7.45653","2288.43","4.9526","0.099052","223.7"
"7.46989","2289.22","4.9565","0.09913","224.1"
"7.48321","2289.4","4.969","0.09938","224.5"
"7.49654","2289.82","4.9736","0.099472","224.9"
"7.5099","2290.3","4.9831","0.099662","225.3"
"7.52322","2290.76","4.9933","0.099866","225.7"
"7.53659","2291.2","5.0012","0.100024","226.1"
"7.54991","2291.49","5.0084","0.100168","226.5"
"7.56323","2291.86","5.0166","0.100332","226.9"
"7.57655","2292.4","5.0211","0.100422","227.3"
"7.58987","2292.83","5.0319","0.100638","227.7"
"7.60319","2293.32","5.0388","0.100776","228.1"
"7.61651","2293.75","5.0495","0.10099","228.5"
"7.62988","2294.31","5.0552","0.101104","228.9"
"7.6432","2294.77","5.063","0.10126","229.3"
"7.65661","2295.2","5.0733","0.101466","229.7"
"7.66998","2295.84","5.0772","0.101544","230.1"
"7.68325","2296.44","5.0884","0.101768","230.5"
"7.69667","2296.72","5.0995","0.10199","230.9"
"7.70994","2297.02","5.1025","0.10205","231.3"
"7.72321","2297.47","5.1122","0.102244","231.7"
"7.73653","2297.89","5.1211","0.102422","232.1"
"7.74985","2298.13","5.1331","0.102662","232.5"
"7.76322","2298.6","5.1386","0.102772","232.9"
"7.77659","2299.23","5.1481","0.102962","233.3"
"7.78991","2299.8","5.1538","0.103076","233.7"
"7.80327","2300.05","5.1601","0.103202","234.1"
"7.8166","2300.52","5.1747","0.103422","234.5"
"7.82991","2300.88","5.1798","0.103596","234.9"
"7.84324","2301.26","5.185","0.1037","235.3"
"7.8566","2301.51","5.1945","0.10389","235.7"
"7.86988","2301.97","5.2008","0.104016","236.1"
"7.8832","2302.49","5.2088","0.104176","236.5"
"7.89652","2302.87","5.2189","0.104378","236.9"
"7.90988","2303.53","5.2306","0.104612","237.3"
"7.9233","2304.16","5.2359","0.104718","237.7"
"7.93657","2304.69","5.2498","0.104996","238.1"
"7.94994","2304.83","5.2506","0.105012","238.5"
"7.96326","2305.45","5.2619","0.105238","238.9"
"7.97658","2305.76","5.2727","0.105454","239.3"
"7.9899","2305.75","5.2773","0.105546","239.7"
"8.00322","2306.2","5.2892","0.105784","240.1"
"8.01659","2306.79","5.2969","0.105938","240.5"
"8.02986","2307.12","5.3048","0.106096","240.9"
"8.04323","2307.53","5.3124","0.106248","241.3"
"8.05655","2307.69","5.3187","0.106374","241.7"
"8.06991","2308.46","5.3288","0.106576","242.1"
"8.08328","2308.84","5.3321","0.106642","242.5"
"8.0966","2309.23","5.3396","0.106792","242.9"
"8.10992","2309.76","5.3509","0.107018","243.3"
"8.12324","2310.05","5.3618","0.107236","243.7"
"8.13656","2310.38","5.3655","0.10731","244.1"
"8.14988","2310.88","5.3765","0.10753","244.5"
"8.1632","2311.1","5.3829","0.107658","244.9"
"8.17652","2311.26","5.3933","0.107866","245.3"
"8.18989","2311.61","5.3987","0.107974","245.7"
"8.20326","2312.01","5.4078","0.108156","246.1"
"8.21658","2312.12","5.4149","0.108298","246.5"
"8.22994","2312.55","5.4258","0.108516","246.9"
"8.24326","2312.54","5.4297","0.108594","247.3"
"8.25658","2313.06","5.4401","0.108802","247.7"
"8.26995","2313.65","5.4459","0.108918","248.1"
"8.28322","2313.79","5.4558","0.109116","248.5"
"8.29654","2314.38","5.4632","0.109264","248.9"
"8.30987","2314.57","5.4733","0.109466","249.3"
"8.32323","2314.93","5.4829","0.109658","249.7"
"8.3366","2315.35","5.4886","0.109772","250.1"
"8.34992","2315.7","5.4979","0.109958","250.5"
"8.36329","2316.39","5.5067","0.110134","250.9"
"8.37661","2316.52","5.5142","0.110284","251.3"
"8.38993","2316.98","5.5186","0.110372","251.7"
"8.4032","2317.32","5.5295","0.11059","252.1"
"8.41652","2317.5","5.5333","0.110666","252.5"
"8.42989","2316.98","5.5404","0.110808","252.9"
"8.44316","2317.38","5.5529","0.111058","253.3"
"8.45657","2317.79","5.5569","0.111138","253.7"
"8.4699","2318.36","5.5659","0.111318","254.1"
"8.48322","2318.61","5.5737","0.111474","254.5"
"8.49663","2319.31","5.5775","0.11155","254.9"
"8.50995","2319.8","5.5854","0.111708","255.3"
"8.52327","2320.19","5.5963","0.111926","255.7"
"8.53659","2320.24","5.6022","0.112044","256.1"
"8.54991","2320.81","5.6085","0.11217","256.5"
"8.56318","2320.84","5.6182","0.112364","256.9"
"8.57655","2321.1","5.6308","0.112616","257.3"
"8.58992","2321.61","5.6335","0.11267","257.7"
"8.60324","2322.01","5.6481","0.112962","258.1"
"8.6166","2322.7","5.6537","0.113074","258.5"
"8.62992","2322.86","5.659","0.11318","258.9"
"8.64325","2323.28","5.6693","0.113386","259.3"
"8.65661","2323.51","5.6758","0.113516","259.7"
"8.66989","2323.97","5.6864","0.113728","260.1"
"8.68325","2324.3","5.6962","0.113924","260.5"
"8.69653","2324.44","5.7008","0.114016","260.9"
"8.70985","2324.46","5.7052","0.114104","261.3"
"8.72321","2325.05","5.7157","0.114314","261.7"
"8.73653","2325.22","5.7239","0.114478","262.1"
"8.7499","2325.52","5.7287","0.114574","262.5"
"8.76327","2326.17","5.7388","0.114776","262.9"
"8.77663","2326.34","5.7466","0.114932","263.3"
"8.78991","2326.5","5.7597","0.115194","263.7"
"8.80328","2326.87","5.767","0.115296","264.1"
"8.8166","2326.97","5.7717","0.115434","264.5"
"8.82987","2327.53","5.7775","0.11555","264.9"
"8.84328","2327.62","5.7885","0.11577","265.3"
"8.85656","2327.98","5.793","0.11586","265.7"
"8.86988","2328.41","5.8039","0.116078","266.1"
"8.88324","2328.72","5.8122","0.116244","266.5"
"8.89656","2328.82","5.824","0.11648","266.9"
"8.90993","2329.47","5.8258","0.116516","267.3"
"8.92325","2329.67","5.8395","0.11679","267.7"
"8.93662","2330.09","5.8466","0.116932","268.1"
"8.94989","2330.34","5.854","0.11708","268.5"
"8.96321","2330.36","5.8643","0.117286","268.9"
"8.97653","2330.69","5.87","0.1174","269.3"
"8.98985","2331.07","5.8804","0.117608","269.7"
"9.00322","2331.35","5.8894","0.117788","270.1"
"9.01654","2331.66","5.8934","0.117868","270.5"
"9.02995","2331.86","5.9014","0.118028","270.9"
"9.04327","2332.42","5.9115","0.11823","271.3"
"9.05659","2332.41","5.9134","0.118268","271.7"
"9.06996","2332.73","5.9252","0.118504","272.1"
"9.08328","2333.02","5.9374","0.118748","272.5"
"9.09655","2332.99","5.9431","0.118862","272.9"
"9.10988","2333.27","5.9536","0.119072","273.3"
"9.12319","2333.36","5.9617","0.119234","273.7"
"9.13652","2333.64","5.9682","0.119364","274.1"
"9.14988","2333.45","5.9774","0.119548","274.5"
"9.16325","2333.76","5.9823","0.119646","274.9"
"9.17657","2333.83","5.9952","0.119904","275.3"
"9.18998","2334.1","5.9995","0.11999","275.7"
"9.20326","2334.25","6.0072","0.120144","276.1"
"9.21658","2334.62","6.0172","0.120344","276.5"
"9.2299","2334.89","6.0274","0.120548","276.9"
"9.24317","2334.96","6.0352","0.120704","277.3"
"9.25658","2335.19","6.0458","0.120916","277.7"
"9.26986","2335.59","6.0493","0.120986","278.1"
"9.28323","2335.95","6.051","0.12102","278.5"
"9.29659","2336.36","6.061","0.12122","278.9"
"9.30991","2336.55","6.0715","0.12143","279.3"
"9.32328","2336.84","6.0816","0.121632","279.7"
"9.3366","2337.12","6.091","0.12182","280.1"
"9.34997","2337.44","6.0968","0.121936","280.5"
"9.36324","2337.51","6.1034","0.122068","280.9"
"9.37661","2337.93","6.1136","0.122272","281.3"
"9.38988","2337.95","6.1232","0.122464","281.7"
"9.4032","2338.13","6.1255","0.12251","282.1"
"9.41657","2338.54","6.1376","0.122752","282.5"
"9.42984","2338.5","6.1404","0.122808","282.9"
"9.44326","2339.01","6.1473","0.122946","283.3"
"9.45662","2338.77","6.1612","0.123224","283.7"
"9.4699","2339.02","6.1643","0.123286","284.1"
"9.48326","2339.23","6.1745","0.12349","284.5"
"9.49658","2339.54","6.1808","0.123616","284.9"
"9.5099","2339.68","6.1952","0.123904","285.3"
"9.52322","2339.76","6.1971","0.123942","285.7"
"9.53654","2340.15","6.2095","0.12419","286.1"
"9.54986","2340.1","6.2106","0.124212","286.5"
"9.56323","2340.63","6.2211","0.124422","286.9"
"9.5766","2340.48","6.2315","0.12463","287.3"
"9.58992","2340.87","6.2405","0.12481","287.7"
"9.60333","2341.06","6.2469","0.124938","288.1"
"9.61661","2341.32","6.2524","0.125048","288.5"
"9.62993","2341.63","6.2605","0.12521","288.9"
"9.64325","2341.91","6.273","0.12546","289.3"
"9.65652","2341.86","6.2808","0.125616","289.7"
"9.66989","2342.03","6.29","0.1258","290.1"
"9.68321","2342.03","6.2929","0.125858","290.5"
"9.69653","2341.66","6.305","0.1261","290.9"
"9.70989","2342.07","6.3075","0.12615","291.3"
"9.72326","2342.27","6.3134","0.126268","291.7"
"9.73663","2342.67","6.327","0.12654","292.1"
"9.74995","2342.92","6.3317","0.126634","292.5"
"9.76332","2343.36","6.3397","0.126794","292.9"
"9.77654","2343.25","6.3496","0.126992","293.3"
"9.78986","2343.47","6.3616","0.127232","293.7"
"9.80318","2343.27","6.3658","0.127316","294.1"
"9.8165","2343.56","6.3738","0.127476","294.5"
"9.82992","2343.65","6.3781","0.127562","294.9"
"9.84324","2344.17","6.3905","0.12781","295.3"
"9.85656","2344.33","6.3963","0.127926","295.7"
"9.86992","2344.79","6.401","0.12802","296.1"
"9.88324","2345","6.4203","0.128406","296.5"
"9.89661","2345.29","6.4187","0.128374","296.9"
"9.90993","2345.24","6.4255","0.12851","297.3"
"9.92325","2345.37","6.4391","0.128782","297.7"
"9.93653","2345.57","6.4462","0.128924","298.1"
"9.94989","2346.1","6.4536","0.129072","298.5"
"9.96321","2345.98","6.4579","0.129158","298.9"
"9.97658","2346.09","6.4665","0.12933","299.3"
"9.98995","2346.6","6.474","0.12948","299.7"
"10.0033","2346.85","6.4827","0.129654","300.1"
"10.0166","2346.94","6.4897","0.129794","300.5"
"10.0299","2347.29","6.495","0.1299","300.9"
"10.0432","2347.29","6.5086","0.130172","301.3"
"10.0566","2347.48","6.5165","0.13033","301.7"
"10.0699","2347.53","6.5206","0.130412","302.1"
"10.0832","2347.94","6.529","0.13058","302.5"
"10.0965","2348.02","6.5395","0.13079","302.9"
"10.1099","2348.04","6.5459","0.130918","303.3"
"10.1232","2348.62","6.5492","0.130984","303.7"
"10.1366","2348.62","6.5558","0.131116","304.1"
"10.1499","2348.83","6.5667","0.131334","304.5"
"10.1633","2349","6.5707","0.131414","304.9"
"10.1767","2349.31","6.5788","0.131576","305.3"
"10.1899","2348.11","6.5892","0.131784","305.7"
"10.2032","2347.83","6.5961","0.131922","306.1"
"10.2166","2348.36","6.6009","0.132018","306.5"
"10.2299","2348.5","6.609","0.13218","306.9"
"10.2432","2348.67","6.6149","0.132298","307.3"
"10.2566","2348.95","6.6197","0.132394","307.7"
"10.2699","2349.02","6.6308","0.132616","308.1"
"10.2833","2349.28","6.6336","0.132672","308.5"
"10.2966","2349.51","6.6499","0.132998","308.9"
"10.3099","2349.55","6.6562","0.133124","309.3"
"10.3232","2349.8","6.6624","0.133248","309.7"
"10.3366","2350.01","6.6718","0.133436","310.1"
"10.3498","2349.83","6.6765","0.13353","310.5"
"10.3632","2349.88","6.6786","0.133572","310.9"
"10.3765","2348.36","6.6877","0.133754","311.3"
"10.3899","2347.23","6.6948","0.133896","311.7"
"10.4033","2347.37","6.7015","0.13403","312.1"
"10.4166","2347.75","6.7101","0.134202","312.5"
"10.4299","2348.13","6.7135","0.13427","312.9"
"10.4433","2348.18","6.7257","0.134514","313.3"
"10.4566","2348.55","6.7251","0.134502","313.7"
"10.4699","2348.76","6.7341","0.134682","314.1"
"10.4833","2348.88","6.741","0.13482","314.5"
"10.4966","2348.81","6.7544","0.135088","314.9"
"10.5099","2348.83","6.7524","0.135048","315.3"
"10.5233","2349.21","6.7669","0.135338","315.7"
"10.5365","2349.17","6.7733","0.135466","316.1"
"10.5499","2349.56","6.7796","0.135592","316.5"
"10.5633","2349.6","6.7861","0.135722","316.9"
"10.5766","2349.54","6.7869","0.135738","317.3"
"10.5899","2349.76","6.8009","0.136018","317.7"
"10.6032","2349.68","6.8023","0.136046","318.1"
"10.6165","2349.54","6.8074","0.136148","318.5"
"10.6299","2349.65","6.8191","0.136382","318.9"
"10.6432","2350.06","6.8226","0.136452","319.3"
"10.6565","2349.85","6.829","0.13658","319.7"
"10.6699","2350.06","6.8333","0.136666","320.1"
"10.6833","2350.1","6.8384","0.136768","320.5"
"10.6966","2350.01","6.8472","0.136944","320.9"
"10.7099","2350.27","6.8547","0.137094","321.3"
"10.7233","2350","6.8568","0.137136","321.7"
"10.7366","2350.31","6.8684","0.137368","322.1"
"10.7499","2350.43","6.8692","0.137384","322.5"
"10.7632","2350.39","6.883","0.13766","322.9"
"10.7765","2350.32","6.8833","0.137666","323.3"
"10.7899","2350.33","6.8945","0.13789","323.7"
"10.8032","2350.34","6.9041","0.138082","324.1"
"10.8165","2350.52","6.9111","0.138222","324.5"
"10.8299","2350.43","6.914","0.13828","324.9"
"10.8433","2350.32","6.9251","0.138502","325.3"
"10.8566","2350.52","6.9231","0.138462","325.7"
"10.8699","2350.73","6.937","0.13874","326.1"
"10.8832","2350.66","6.9434","0.138868","326.5"
"10.8966","2350.65","6.94","0.1388","326.9"
"10.9099","2350.51","6.9497","0.138994","327.3"
"10.9232","2350.54","6.9605","0.13921","327.7"
"10.9366","2350.7","6.9609","0.139218","328.1"
"10.9499","2350.28","6.9663","0.139326","328.5"
"10.9633","2350.5","6.9774","0.139548","328.9"
"10.9767","2350.8","6.982","0.13964","329.3"
"10.9899","2351.04","6.9919","0.139838","329.7"
"11.0033","2351.13","6.9894","0.139788","330.1"
"11.0166","2350.85","7.0041","0.140082","330.5"
"11.0299","2350.66","7.0101","0.140202","330.9"
"11.0432","2350.68","7.0069","0.140138","331.3"
"11.0565","2350.57","7.0202","0.140404","331.7"
"11.0699","2350.75","7.0247","0.140494","332.1"
"11.0832","2350.58","7.0314","0.140628","332.5"
"11.0966","2350.82","7.0389","0.140778","332.9"
"11.1099","2350.73","7.0479","0.140958","333.3"
"11.1232","2350.96","7.0528","0.141056","333.7"
"11.1366","2350.99","7.0598","0.141196","334.1"
"11.1499","2350.54","7.0607","0.141214","334.5"
"11.1633","2350.5","7.0652","0.141304","334.9"
"11.1765","2350.24","7.0667","0.141334","335.3"
"11.1898","2350.19","7.0787","0.141574","335.7"
"11.2032","2348.19","7.0816","0.141632","336.1"
"11.2166","2348.29","7.0932","0.141864","336.5"
"11.2299","2348.49","7.1007","0.142014","336.9"
"11.2433","2348.42","7.103","0.14206","337.3"
"11.2566","2348.6","7.1041","0.142082","337.7"
"11.2699","2348.48","7.1088","0.142176","338.1"
"11.2833","2348.52","7.117","0.14234","338.5"
"11.2966","2348.55","7.1223","0.142446","338.9"
"11.3099","2348.13","7.1283","0.142566","339.3"
"11.3232","2348.47","7.1332","0.142664","339.7"
"11.3365","2347.96","7.1353","0.142706","340.1"
"11.3499","2347.9","7.1438","0.142876","340.5"
"11.3632","2347.81","7.1498","0.142996","340.9"
"11.3766","2347.55","7.1517","0.143034","341.3"
"11.3899","2347.66","7.1574","0.143148","341.7"
"11.4032","2347.27","7.1675","0.14335","342.1"
"11.4166","2346.93","7.164","0.14328","342.5"
"11.4299","2347.1","7.1676","0.14345","342.9"
"11.4432","2346.79","7.1816","0.143632","343.3"
"11.4565","2345.26","7.1879","0.143758","343.7"
"11.4699","2344.76","7.1833","0.143666","344.1"
"11.4832","2344.6","7.1903","0.143806","344.5"
"11.4965","2342.12","7.1996","0.143992","344.9"
"11.51","2340.79","7.1986","0.143972","345.3"
"11.5233","2340.04","7.204","0.14408","345.7"
"11.5366","2339.85","7.2016","0.144032","346.1"
"11.55","2339.43","7.2041","0.144082","346.5"
"11.5633","2332.42","7.2178","0.144356","346.9"
"11.5766","2328.61","7.2091","0.144182","347.3"
"11.5899","2326.86","7.2183","0.144366","347.7"
"11.6032","2325.37","7.2182","0.144364","348.1"
"11.6165","2323.51","7.2196","0.144392","348.5"
"11.6299","2316.93","7.2258","0.144516","348.9"
"11.6432","2312.77","7.2212","0.144424","349.3"
"11.6566","2302.82","7.2214","0.144428","349.7"
"11.67","2283.95","7.2167","0.144334","350.1"
"11.6833","2258.42","7.2169","0.144338","350.5"
"11.6966","2241.06","7.2124","0.144248","350.9"
"11.7099","2212.29","7.2083","0.144166","351.3"
"11.7234","686.737","7.1967","0.143934","351.7"
"11.7236","528.259","7.1967","0.143934","351.706"