File: experimental_data/tensile_specimen_test_data/tensile_test_data/20250312/original_data/SSS 5 03-12-25 16 18 12 下午/数采：横梁, … - (实时值).csv
"文件路径: C:\Users\Lenovo\Desktop\Wayne\20250312\原始数据\SSS 5 03-12-25 16 18 12 下午\数采：横梁, … - (实时值).csv   "
"试验: 拉伸试验（UNIVER）      视频引伸计采集变形-W 1"
"试验运行: SSS 5"
"日期: 2025/3/12 12:37:46"
""
""
"横梁 ","力 ","视频引伸计变形 ","应变 ","时间 "
"mm","N","mm","mm/mm","sec"
"0.00279447","-97.3476","-0.0002","-4e-06","0.1"
"0.0265009","-28.0146","0.0341","0.000682","0.8"
"0.0498813","45.7811","0.0604","0.001208","1.5"
"0.0732617","119.252","0.0824","0.001648","2.2"
"0.0965489","191.119","0.103","0.00206","2.9"
"0.119929","262.084","0.1187","0.002374","3.6"
"0.143263","330.751","0.1357","0.002714","4.3"
"0.16655","397.55","0.1549","0.003098","5"
"0.189931","463.787","0.1711","0.003422","5.7"
"0.213265","528.136","0.1853","0.003706","6.4"
"0.236552","590.823","0.1996","0.003992","7.1"
"0.259886","652.237","0.2177","0.004354","7.8"
"0.283266","712.773","0.2323","0.004646","8.5"
"0.306553","771.568","0.2466","0.004932","9.2"
"0.329887","828.059","0.2623","0.005246","9.9"
"0.353267","880.351","0.2787","0.005574","10.6"
"0.376555","927.197","0.2935","0.00587","11.3"
"0.399935","968.866","0.3096","0.006192","12"
"0.423269","1006.25","0.329","0.00658","12.7"
"0.446556","1039.41","0.3438","0.006876","13.4"
"0.46989","1070.15","0.3593","0.007186","14.1"
"0.49327","1088.4","0.3837","0.007592","14.8"
"0.516558","1116.67","0.3989","0.007978","15.5"
"0.539938","1142.24","0.4141","0.008282","16.2"
"0.563225","1165.72","0.4317","0.008634","16.9"
"0.586512","1187.7","0.4507","0.009014","17.6"
"0.609893","1209.03","0.4668","0.009336","18.3"
"0.633273","1229.32","0.4847","0.009694","19"
"0.65656","1248.45","0.5037","0.010074","19.7"
"0.679894","1266.85","0.5201","0.010402","20.4"
"0.703275","1284.4","0.536","0.01072","21.1"
"0.726608","1301.31","0.5534","0.011068","21.8"
"0.749849","1317.96","0.5731","0.011462","22.5"
"0.773276","1333.99","0.5907","0.011814","23.2"
"0.796563","1348.74","0.6062","0.012124","23.9"
"0.819897","1363.34","0.6264","0.012528","24.6"
"0.843324","1377.76","0.6433","0.012866","25.3"
"0.866518","1390.73","0.6607","0.013214","26"
"0.889899","1403.87","0.6769","0.013538","26.7"
"0.913279","1416.36","0.6974","0.013948","27.4"
"0.936566","1428.46","0.7153","0.014306","28.1"
"0.9599","1440.33","0.7319","0.014638","28.8"
"0.98328","1451.78","0.7515","0.01503","29.5"
"1.00657","1462.72","0.7695","0.01539","30.2"
"1.02985","1473.18","0.7866","0.015732","30.9"
"1.05328","1483.59","0.8032","0.016064","31.6"
"1.07662","1493.81","0.8232","0.016464","32.3"
"1.09986","1503.3","0.8396","0.016792","33"
"1.12328","1512.72","0.857","0.01714","33.7"
"1.14657","1521.88","0.8766","0.017532","34.4"
"1.16986","1530.57","0.8944","0.017888","35.1"
"1.19328","1539.28","0.9114","0.018228","35.8"
"1.21657","1547.56","0.9294","0.018588","36.5"
"1.23991","1555.56","0.9497","0.018994","37.2"
"1.26329","1538.58","1.0011","0.020022","37.9"
"1.28653","1559.98","1.0182","0.020364","38.6"
"1.30991","1570.49","1.0384","0.020768","39.3"
"1.33329","1578.96","1.055","0.0211","40"
"1.35653","1586.05","1.0725","0.02145","40.7"
"1.37991","1593.26","1.0905","0.02181","41.4"
"1.40329","1600.8","1.1113","0.022226","42.1"
"1.42658","1607.43","1.128","0.02256","42.8"
"1.44986","1614.26","1.1464","0.022928","43.5"
"1.47324","1621.17","1.167","0.02334","44.2"
"1.49658","1627.4","1.1848","0.023696","44.9"
"1.51987","1633.77","1.2032","0.024064","45.6"
"1.54329","1640.44","1.2206","0.024412","46.3"
"1.56658","1646.4","1.2413","0.024826","47"
"1.58987","1652.27","1.259","0.02518","47.7"
"1.61329","1658.5","1.2744","0.025488","48.4"
"1.63658","1664.54","1.2954","0.025908","49.1"
"1.65987","1670.05","1.3135","0.02627","49.8"
"1.68329","1676.29","1.3329","0.026658","50.5"
"1.70654","1681.37","1.3527","0.027054","51.2"
"1.72987","1686.8","1.3709","0.027418","51.9"
"1.7533","1692.72","1.3872","0.027744","52.6"
"1.77658","1698.14","1.4068","0.028136","53.3"
"1.79992","1703.48","1.4273","0.028546","54"
"1.82325","1709.06","1.4445","0.02889","54.7"
"1.84658","1714.09","1.4622","0.029244","55.4"
"1.86987","1719.45","1.4827","0.029654","56.1"
"1.89325","1724.41","1.5006","0.030012","56.8"
"1.91659","1729.33","1.5187","0.030374","57.5"
"1.93987","1734.43","1.5355","0.03071","58.2"
"1.96325","1739.65","1.5565","0.03113","58.9"
"1.98663","1744.44","1.5748","0.031496","59.6"
"2.00983","1749.07","1.5935","0.03187","60.3"
"2.03326","1754.11","1.6141","0.032282","61"
"2.05659","1758.65","1.6311","0.032622","61.7"
"2.07988","1763.55","1.649","0.03298","62.4"
"2.1033","1768.48","1.6672","0.033344","63.1"
"2.12659","1773.43","1.6881","0.033762","63.8"
"2.14988","1777.6","1.7052","0.034104","64.5"
"2.17326","1782.39","1.7226","0.034452","65.2"
"2.19659","1787.14","1.7434","0.034804","65.9"
"2.21993","1773.29","1.739","0.03478","66.6"
"2.24326","1786.71","1.7527","0.035054","67.3"
"2.26659","1793.95","1.7688","0.035376","68"
"2.28988","1799.03","1.7876","0.035752","68.7"
"2.31326","1803.85","1.8046","0.036092","69.4"
"2.33659","1808.55","1.8219","0.036438","70.1"
"2.35988","1812.62","1.8421","0.036842","70.8"
"2.38326","1817.28","1.8594","0.037188","71.5"
"2.4066","1821.49","1.8773","0.037546","72.2"
"2.42984","1825.45","1.8956","0.037912","72.9"
"2.45326","1830.03","1.9152","0.038304","73.6"
"2.4766","1834.28","1.9342","0.038684","74.3"
"2.49989","1838.16","1.9506","0.039012","75"
"2.52327","1842.68","1.9714","0.039428","75.7"
"2.5466","1846.93","1.9883","0.039766","76.4"
"2.56989","1850.66","2.2604","0.045208","77.1"
"2.59322","1854.94","2.2893","0.045786","77.8"
"2.6166","1859","2.3107","0.046214","78.5"
"2.63989","1862.76","2.3288","0.046576","79.2"
"2.66327","1867.08","2.3447","0.046894","79.9"
"2.6866","1871.12","2.3665","0.04733","80.6"
"2.70984","1875.08","2.3875","0.04775","81.3"
"2.73327","1878.86","2.4059","0.048118","82"
"2.7566","1882.78","2.4302","0.048604","82.7"
"2.77984","1886.34","2.4489","0.048978","83.4"
"2.80327","1890.56","2.4709","0.049418","84.1"
"2.82665","1894.45","2.4888","0.049776","84.8"
"2.84985","1897.78","2.5113","0.050226","85.5"
"2.87323","1898.87","2.5267","0.050534","86.2"
"2.89661","1904.13","2.5423","0.050846","86.9"
"2.91989","1908.17","2.5698","0.051396","87.6"
"2.94327","1912.09","2.5873","0.051746","88.3"
"2.96656","1915.74","2.6031","0.052062","89"
"2.9899","1919.38","2.628","0.05256","89.7"
"3.01323","1923.19","2.6479","0.052958","90.4"
"3.03656","1926.85","2.6655","0.05331","91.1"
"3.0599","1930.28","2.6888","0.053776","91.8"
"3.08323","1933.86","2.7087","0.054174","92.5"
"3.10661","1937.73","2.726","0.05452","93.2"
"3.1299","1940.92","2.7463","0.054926","93.9"
"3.15323","1944.27","2.7686","0.055372","94.6"
"3.17661","1948.18","2.791","0.05582","95.3"
"3.1999","1951.4","2.8081","0.056162","96"
"3.22323","1954.75","2.8279","0.056558","96.7"
"3.24666","1958.52","2.8517","0.057034","97.4"
"3.26985","1961.65","2.8743","0.057486","98.1"
"3.29323","1965.13","2.8922","0.057844","98.8"
"3.31657","1968.35","2.914","0.05828","99.5"
"3.3399","1860.42","2.8392","0.056784","100.2"
"3.36328","1889.16","2.8451","0.056902","100.9"
"3.38657","1914.25","2.8537","0.057074","101.6"
"3.40986","1934.6","2.8637","0.057274","102.3"
"3.43324","1949.67","2.8766","0.057532","103"
"3.45662","1960.63","2.8905","0.05781","103.7"
"3.47991","1967.46","2.9062","0.058124","104.4"
"3.50319","1972.78","2.9247","0.058494","105.1"
"3.52667","1976.09","2.9416","0.058832","105.8"
"3.54991","1979.78","2.9549","0.059098","106.5"
"3.57319","1983.57","2.974","0.05948","107.2"
"3.59667","1987.15","2.996","0.05992","107.9"
"3.61991","1990.17","3.0133","0.060266","108.6"
"3.64324","1993.53","3.0328","0.060656","109.3"
"3.66662","1996.71","3.0503","0.061006","110"
"3.68991","1999.73","3.0735","0.06147","110.7"
"3.7132","2003.1","3.0965","0.06193","111.4"
"3.73658","2006.13","3.1134","0.062268","112.1"
"3.75986","2009.04","3.1281","0.062562","112.8"
"3.78325","2011.97","3.1513","0.063026","113.5"
"3.80663","2015.05","3.1719","0.063438","114.2"
"3.82987","2017.91","3.1895","0.06379","114.9"
"3.8532","2020.85","3.2093","0.064186","115.6"
"3.87663","2023.78","3.227","0.06454","116.3"
"3.89991","2026.61","3.2499","0.064998","117"
"3.9232","2029.48","3.2679","0.065358","117.7"
"3.94663","2032.78","3.2911","0.065822","118.4"
"3.96992","2035.34","3.3072","0.066144","119.1"
"3.9932","2037.74","3.3274","0.066548","119.8"
"4.01663","2040.94","3.3437","0.066874","120.5"
"4.03992","2043.64","3.3671","0.067342","121.2"
"4.06325","2046.49","3.3862","0.067724","121.9"
"4.08663","2049.52","3.4035","0.06807","122.6"
"4.10987","2052.11","3.4248","0.068496","123.3"
"4.13325","2054.74","3.441","0.06882","124"
"4.15659","2057.44","3.4686","0.069372","124.7"
"4.17987","2059.98","3.4828","0.069656","125.4"
"4.20325","2062.7","3.5005","0.07001","126.1"
"4.22663","2065.48","3.5256","0.070512","126.8"
"4.24987","2067.87","3.5446","0.070892","127.5"
"4.27321","2070.69","3.5612","0.071224","128.2"
"4.29659","2073.74","3.5824","0.071648","128.9"
"4.31992","2075.96","3.6001","0.072002","129.6"
"4.34321","2078.16","3.6202","0.072404","130.3"
"4.36659","2081.03","3.6434","0.072868","131"
"4.38992","2083.5","3.663","0.07326","131.7"
"4.41321","2085.87","3.6809","0.073618","132.4"
"4.43659","2088.29","3.6978","0.073956","133.1"
"4.45988","2090.75","3.7196","0.074392","133.8"
"4.48326","2093.44","3.7431","0.074862","134.5"
"4.50664","2096.1","3.7632","0.075264","135.2"
"4.52988","2097.98","3.7764","0.075528","135.9"
"4.55321","2100.31","3.8024","0.076048","136.6"
"4.57659","2102.99","3.8174","0.076348","137.3"
"4.59993","2105.29","3.8379","0.076758","138"
"4.62322","2107.88","3.8623","0.077246","138.7"
"4.6466","2110.38","3.878","0.07756","139.4"
"4.66993","2112.31","3.9055","0.07811","140.1"
"4.69322","2114.56","3.9198","0.078396","140.8"
"4.7166","2117.17","3.9342","0.078684","141.5"
"4.73998","2119.29","3.9561","0.079122","142.2"
"4.76322","2121.59","3.9758","0.079516","142.9"
"4.7866","2123.68","3.9982","0.079964","143.6"
"4.80993","2126.08","4.018","0.08036","144.3"
"4.83322","2128.17","4.0359","0.080718","145"
"4.8566","2130.42","4.0619","0.081238","145.7"
"4.87993","2132.61","4.0778","0.081556","146.4"
"4.90322","2134.67","4.0988","0.081976","147.1"
"4.92665","2137.07","4.1176","0.082352","147.8"
"4.94994","2139.22","4.1385","0.08277","148.5"
"4.97318","2141.05","4.1541","0.083082","149.2"
"4.9966","2143.36","4.1813","0.083626","149.9"
"5.01994","2145.35","4.2004","0.084008","150.6"
"5.04322","2147.3","4.2231","0.084462","151.3"
"5.0666","2149.41","4.2381","0.084762","152"
"5.08994","2151.5","4.2608","0.085216","152.7"
"5.11323","2153.5","4.2812","0.085624","153.4"
"5.13656","2155.4","4.3041","0.086082","154.1"
"5.15994","2157.84","4.3355","0.08671","154.8"
"5.18323","2159.42","4.349","0.08698","155.5"
"5.20661","2161.47","4.3633","0.087266","156.2"
"5.22994","2163.26","4.3859","0.087718","156.9"
"5.25318","2164.77","4.402","0.08804","157.6"
"5.27666","2166.94","4.4215","0.08843","158.3"
"5.2999","2168.95","4.446","0.08892","159"
"5.32318","2170.77","4.4653","0.089306","159.7"
"5.34666","2172.77","4.4852","0.089704","160.4"
"5.36994","2174.67","4.5056","0.090112","161.1"
"5.39319","2176.05","4.5188","0.090376","161.8"
"5.41657","2178.41","4.5408","0.090816","162.5"
"5.43995","2179.98","4.5658","0.091316","163.2"
"5.46323","2181.46","4.5879","0.091758","163.9"
"5.48657","2183.39","4.6005","0.09201","164.6"
"5.50995","2185.22","4.63","0.0926","165.3"
"5.53323","2186.86","4.6498","0.092996","166"
"5.55657","2188.53","4.6645","0.09329","166.7"
"5.57995","2190.17","4.6853","0.093706","167.4"
"5.60319","2188.49","4.701","0.09402","168.1"
"5.62662","2192.03","4.7247","0.094494","168.8"
"5.64995","2194.17","4.7379","0.094758","169.5"
"5.67319","2195.72","4.7585","0.09517","170.2"
"5.69657","2197.65","4.78","0.0956","170.9"
"5.71995","2199.5","4.7977","0.095954","171.6"
"5.74324","2201","4.8196","0.096392","172.3"
"5.76657","2202.76","4.8382","0.096764","173"
"5.78995","2204.21","4.8617","0.097234","173.7"
"5.81324","2205.69","4.8799","0.097598","174.4"
"5.83657","2207.44","4.9024","0.098048","175.1"
"5.85991","2209.06","4.9197","0.098394","175.8"
"5.88324","2210.65","4.9416","0.098832","176.5"
"5.90653","2212","4.9641","0.099282","177.2"
"5.92991","2213.63","4.9824","0.099648","177.9"
"5.95324","2215.37","5.0003","0.100006","178.6"
"5.97658","2216.75","5.016","0.10032","179.3"
"5.99991","2218.23","5.0428","0.100856","180"
"6.0232","2219.58","5.06","0.1012","180.7"
"6.04658","2221.25","5.0814","0.101628","181.4"
"6.07001","2222.88","5.1002","0.102004","182.1"
"6.0932","2224","5.1233","0.102466","182.8"
"6.11653","2225.33","5.1454","0.102908","183.5"
"6.13996","2226.84","5.1624","0.103248","184.2"
"6.16325","2228.32","5.1856","0.103712","184.9"
"6.18658","2229.7","5.2059","0.104118","185.6"
"6.20992","2230.98","5.2213","0.104426","186.3"
"6.2332","2232.28","5.2427","0.104854","187"
"6.25654","2233.75","5.2696","0.105392","187.7"
"6.27992","2235.09","5.2884","0.105768","188.4"
"6.30325","2236.64","5.3038","0.106076","189.1"
"6.32658","2237.87","5.3277","0.106554","189.8"
"6.34992","2239.21","5.3474","0.106948","190.5"
"6.37321","2240.21","5.3663","0.107326","191.2"
"6.39654","2241.23","5.3902","0.107804","191.9"
"6.41997","2242.98","5.4075","0.10815","192.6"
"6.44321","2244.03","5.427","0.10854","193.3"
"6.46654","2245.2","5.452","0.10904","194"
"6.48997","2246.81","5.4651","0.109302","194.7"
"6.51321","2247.62","5.4943","0.109886","195.4"
"6.53654","2248.81","5.5111","0.110222","196.1"
"6.55992","2250.29","5.5354","0.110708","196.8"
"6.58326","2251.16","5.5508","0.111016","197.5"
"6.60659","2252.31","5.574","0.11148","198.2"
"6.62992","2253.89","5.5976","0.111952","198.9"
"6.65321","2254.76","5.6197","0.112394","199.6"
"6.67659","2256.19","5.6376","0.112752","200.3"
"6.69993","2257.22","5.6522","0.113044","201"
"6.72326","2258.21","5.6844","0.113688","201.7"
"6.74655","2259.51","5.6988","0.113976","202.4"
"6.76997","2260.84","5.7168","0.114336","203.1"
"6.79321","2261.79","5.7331","0.114662","203.8"
"6.81655","2262.73","5.7655","0.11531","204.5"
"6.83993","2264.21","5.7817","0.115634","205.2"
"6.86326","2264.92","5.8025","0.11605","205.9"
"6.88655","2265.96","5.8254","0.116508","206.6"
"6.90993","2267.36","5.8419","0.116838","207.3"
"6.93322","2268.21","5.8634","0.117268","208"
"6.95655","2269.26","5.8855","0.11771","208.7"
"6.97993","2270.45","5.9071","0.118142","209.4"
"7.00322","2271.4","5.9253","0.118506","210.1"
"7.0266","2272.8","5.9466","0.118932","210.8"
"7.04993","2273.53","5.9649","0.119298","211.5"
"7.07322","2274.48","5.9847","0.119694","212.2"
"7.09655","2275.76","6.0049","0.120098","212.9"
"7.11993","2276.76","6.0278","0.120556","213.6"
"7.14327","2277.61","6.0452","0.120904","214.3"
"7.16656","2278.5","6.0632","0.121264","215"
"7.18994","2279.82","6.084","0.12168","215.7"
"7.21327","2280.91","6.1066","0.122132","216.4"
"7.23651","2281.63","6.125","0.1225","217.1"
"7.25994","2282.6","6.1466","0.122932","217.8"
"7.28327","2283.46","6.1683","0.123366","218.5"
"7.30656","2284.08","6.194","0.12388","219.2"
"7.32998","2285.52","6.2035","0.12407","219.9"
"7.35323","2286.29","6.227","0.12454","220.6"
"7.37656","2287.29","6.2475","0.12495","221.3"
"7.39994","2288.26","6.2665","0.12533","222"
"7.42323","2289.02","6.2888","0.125776","222.7"
"7.44656","2289.96","6.3104","0.126208","223.4"
"7.46994","2291.01","6.3293","0.126586","224.1"
"7.49323","2291.72","6.3509","0.127018","224.8"
"7.51652","2292.79","6.3667","0.127334","225.5"
"7.53994","2293.41","6.3913","0.127826","226.2"
"7.56328","2294.48","6.4107","0.128214","226.9"
"7.58652","2295.48","6.4283","0.128566","227.6"
"7.60994","2295.48","6.4496","0.128992","228.3"
"7.63328","2296.17","6.4708","0.129416","229"
"7.65652","2297.11","6.4847","0.129694","229.7"
"7.67995","2298.06","6.5096","0.130192","230.4"
"7.70323","2299.24","6.534","0.13068","231.1"
"7.72657","2299.82","6.5512","0.131024","231.8"
"7.74995","2301.11","6.5676","0.131352","232.5"
"7.77323","2301.8","6.5908","0.131816","233.2"
"7.79652","2302.59","6.6105","0.13221","233.9"
"7.81995","2303.63","6.633","0.13266","234.6"
"7.84324","2304.27","6.6445","0.13289","235.3"
"7.86657","2305","6.669","0.13338","236"
"7.88995","2305.93","6.6906","0.133812","236.7"
"7.91328","2306.78","6.7096","0.134192","237.4"
"7.93652","2307.22","6.7297","0.134594","238.1"
"7.9599","2308.23","6.7521","0.135042","238.8"
"7.98329","2309","6.768","0.13536","239.5"
"8.00657","2309.61","6.7891","0.135782","240.2"
"8.02995","2310.79","6.8132","0.136264","240.9"
"8.05324","2311.64","6.8298","0.136596","241.6"
"8.07653","2311.96","6.8508","0.137016","242.3"
"8.09991","2312.85","6.8708","0.137416","243"
"8.12324","2313.57","6.8951","0.137902","243.7"
"8.14653","2314.09","6.9076","0.138152","244.4"
"8.16996","2314.68","6.9324","0.138648","245.1"
"8.19324","2315.22","6.9515","0.13903","245.8"
"8.21653","2316.03","6.9698","0.139396","246.5"
"8.23991","2316.76","6.9915","0.139832","247.2"
"8.26324","2317.69","7.0132","0.140264","247.9"
"8.28658","2318.24","7.0322","0.140644","248.6"
"8.30991","2319.06","7.0509","0.141018","249.3"
"8.33329","2319.74","7.078","0.14156","250"
"8.35658","2320.71","7.0984","0.141968","250.7"
"8.37987","2321.43","7.1093","0.142186","251.4"
"8.40325","2322.06","7.1347","0.142694","252.1"
"8.42653","2322.44","7.1529","0.143058","252.8"
"8.44991","2323.4","7.175","0.1435","253.5"
"8.47329","2324.02","7.1916","0.143832","254.2"
"8.49654","2324.34","7.213","0.14426","254.9"
"8.51992","2325.22","7.232","0.14464","255.6"
"8.54325","2325.82","7.2473","0.144946","256.3"
"8.56654","2326.25","7.2808","0.145616","257"
"8.58996","2327.1","7.2939","0.145878","257.7"
"8.61325","2327.9","7.3173","0.146346","258.4"
"8.63654","2328.08","7.3321","0.146642","259.1"
"8.65987","2328.98","7.3585","0.14717","259.8"
"8.6833","2329.56","7.37","0.1474","260.5"
"8.70659","2330.06","7.3874","0.147748","261.2"
"8.72987","2330.88","7.416","0.14832","261.9"
"8.75325","2329.09","7.4322","0.148644","262.6"
"8.77659","2329.79","7.4524","0.149048","263.3"
"8.79988","2331.05","7.4694","0.149388","264"
"8.8233","2331.14","7.4933","0.149866","264.7"
"8.84654","2332.05","7.5048","0.150096","265.4"
"8.86992","2332.87","7.5282","0.150564","266.1"
"8.8933","2334.07","7.548","0.15096","266.8"
"8.9165","2334.21","7.5647","0.151294","267.5"
"8.93992","2334.93","7.5891","0.151782","268.2"
"8.96326","2335.45","7.6058","0.152116","268.9"
"8.98655","2335.97","7.624","0.15248","269.6"
"9.00993","2336.73","7.6486","0.152972","270.3"
"9.03331","2337.31","7.6636","0.153272","271"
"9.05655","2337.83","7.6844","0.153688","271.7"
"9.07988","2338.33","7.7023","0.154046","272.4"
"9.10326","2338.86","7.7254","0.154508","273.1"
"9.1266","2339.41","7.7433","0.154866","273.8"
"9.14988","2339.82","7.773","0.15546","274.5"
"9.17326","2340.76","7.781","0.15562","275.2"
"9.19655","2341.19","7.8069","0.156138","275.9"
"9.21988","2341.65","7.8306","0.156612","276.6"
"9.24326","2342.02","7.8459","0.156918","277.3"
"9.26655","2342.46","7.8632","0.157264","278"
"9.28989","2343.19","7.8872","0.157744","278.7"
"9.31331","2343.94","7.9024","0.158048","279.4"
"9.33651","2343.98","7.9232","0.158464","280.1"
"9.35989","2344.55","7.943","0.15886","280.8"
"9.38327","2345.58","7.9644","0.159288","281.5"
"9.40655","2345.59","7.9855","0.15971","282.2"
"9.42994","2346.38","8.0031","0.160062","282.9"
"9.45327","2346.7","8.0245","0.16049","283.6"
"9.47656","2347.32","8.0481","0.160962","284.3"
"9.49989","2347.87","8.0647","0.161294","285"
"9.52322","2348.24","8.0892","0.161784","285.7"
"9.54656","2348.54","8.1049","0.162098","286.4"
"9.56989","2349.07","8.1308","0.162616","287.1"
"9.59327","2349.94","8.1498","0.162996","287.8"
"9.61656","2349.94","8.1801","0.163442","288.5"
"9.63985","2350.54","8.1998","0.163996","289.2"
"9.66327","2350.93","8.2119","0.164238","289.9"
"9.68656","2351.52","8.2364","0.164728","290.6"
"9.70989","2352.1","8.2598","0.165196","291.3"
"9.73332","2352.75","8.284","0.16568","292"
"9.75656","2352.76","8.3046","0.166092","292.7"
"9.77985","2353.08","8.324","0.16648","293.4"
"9.80323","2353.73","8.339","0.16678","294.1"
"9.82661","2354.26","8.368","0.16736","294.8"
"9.8499","2354.69","8.399","0.16798","295.5"
"9.87323","2355.08","8.4075","0.16815","296.2"
"9.89656","2355.18","8.4368","0.168736","296.9"
"9.9199","2355.76","8.459","0.16918","297.6"
"9.94328","2356.14","8.4747","0.169494","298.3"
"9.96657","2356.57","8.4991","0.169982","299"
"9.98985","2357.27","8.5179","0.170358","299.7"
"10.0133","2357.46","8.543","0.17086","300.4"
"10.0366","2358.01","8.565","0.1713","301.1"
"10.0599","2358.29","8.594","0.17188","301.8"
"10.0833","2358.87","8.6094","0.172188","302.5"
"10.1066","2359.01","8.6372","0.172744","303.2"
"10.1299","2359.6","8.6603","0.173206","303.9"
"10.1533","2360.21","8.6748","0.173496","304.6"
"10.1766","2360.63","8.7101","0.174202","305.3"
"10.1999","2360.73","8.7204","0.174408","306"
"10.2233","2361.38","8.7591","0.175182","306.7"
"10.2466","2361.69","8.7757","0.175514","307.4"
"10.2699","2361.98","8.7926","0.175852","308.1"
"10.2933","2362.54","8.822","0.17644","308.8"
"10.3166","2363.06","8.8398","0.176796","309.5"
"10.3399","2363.17","8.8811","0.177622","310.2"
"10.3633","2363.83","8.894","0.17788","310.9"
"10.3866","2364.01","8.9142","0.178284","311.6"
"10.4099","2364.3","8.9499","0.178998","312.3"
"10.4333","2364.85","8.9753","0.179506","313"
"10.4566","2365.34","8.9971","0.179942","313.7"
"10.4799","2365.15","9.0258","0.180516","314.4"
"10.5033","2365.9","9.0506","0.181012","315.1"
"10.5266","2366.13","9.0764","0.181528","315.8"
"10.5499","2366.19","9.0909","0.181818","316.5"
"10.5733","2366.93","9.1151","0.182302","317.2"
"10.5966","2367.53","9.137","0.18274","317.9"
"10.6199","2367.56","9.16","0.1832","318.6"
"10.6432","2368.2","9.1851","0.183702","319.3"
"10.6666","2368.24","9.2054","0.184108","320"
"10.6899","2368.44","9.2263","0.184526","320.7"
"10.7133","2368.97","9.2542","0.185084","321.4"
"10.7366","2369.32","9.2781","0.185562","322.1"
"10.7599","2369.74","9.2967","0.185934","322.8"
"10.7832","2370","9.319","0.18638","323.5"
"10.8066","2369.71","9.3491","0.186982","324.2"
"10.8299","2369.9","9.3666","0.187332","324.9"
"10.8533","2370.52","9.3934","0.187868","325.6"
"10.8766","2370.81","9.4143","0.188286","326.3"
"10.8999","2370.95","9.4366","0.188732","327"
"10.9233","2371.79","9.461","0.18922","327.7"
"10.9466","2371.89","9.4854","0.189708","328.4"
"10.9699","2372.28","9.5009","0.190018","329.1"
"10.9933","2372.9","9.5288","0.190576","329.8"
"11.0165","2372.61","9.55","0.191","330.5"
"11.0399","2373.02","9.5705","0.19141","331.2"
"11.0633","2373.72","9.602","0.19204","331.9"
"11.0866","2373.69","9.6249","0.192498","332.6"
"11.1099","2374.1","9.6393","0.192786","333.3"
"11.1333","2374.32","9.6616","0.193232","334"
"11.1566","2374.41","9.6869","0.193738","334.7"
"11.1799","2374.69","9.7155","0.19431","335.4"
"11.2032","2375.23","9.7344","0.194688","336.1"
"11.2266","2375.44","9.7628","0.195154","336.8"
"11.2499","2375.78","9.7878","0.195756","337.5"
"11.2733","2376.09","9.805","0.1961","338.2"
"11.2966","2376.34","9.8285","0.19657","338.9"
"11.3199","2376.52","9.8555","0.19711","339.6"
"11.3432","2376.69","9.8782","0.197564","340.3"
"11.3666","2377.35","9.8969","0.197938","341"
"11.3899","2377.44","9.9213","0.198426","341.7"
"11.4133","2378.05","9.9397","0.198794","342.4"
"11.4366","2378.07","9.9652","0.199304","343.1"
"11.4598","2377.97","9.9928","0.199856","343.8"
"11.4833","2378.47","10.0107","0.200214","344.5"
"11.5066","2379.14","10.0349","0.200698","345.2"
"11.5299","2378.94","10.0532","0.201064","345.9"
"11.5532","2379.2","10.0888","0.201776","346.6"
"11.5766","2379.91","10.1077","0.202154","347.3"
"11.5999","2379.64","10.1309","0.202618","348"
"11.6232","2379.89","10.1524","0.203048","348.7"
"11.6466","2380.61","10.1815","0.20363","349.4"
"11.6699","2380.46","10.2003","0.204006","350.1"
"11.6933","2380.64","10.2198","0.204396","350.8"
"11.7166","2381.23","10.2425","0.20485","351.5"
"11.7398","2380.96","10.2694","0.205388","352.2"
"11.7633","2381.65","10.2908","0.205816","352.9"
"11.7866","2382","10.3086","0.206172","353.6"
"11.8098","2381.93","10.3416","0.206832","354.3"
"11.8333","2382.21","10.3641","0.207282","355"
"11.8566","2382.75","10.3779","0.207558","355.7"
"11.8799","2382.75","10.4096","0.208192","356.4"
"11.9032","2382.89","10.4361","0.208722","357.1"
"11.9266","2383.28","10.4566","0.209132","357.8"
"11.9499","2383.16","10.4743","0.209486","358.5"
"11.9732","2383.59","10.501","0.21002","359.2"
"11.9966","2383.68","10.5252","0.210504","359.9"
"12.0199","2383.77","10.5451","0.210902","360.6"
"12.0432","2384.28","10.5706","0.211412","361.3"
"12.0666","2384.47","10.5972","0.211944","362"
"12.0899","2384.37","10.6076","0.212152","362.7"
"12.1133","2384.93","10.6384","0.212768","363.4"
"12.1366","2385.36","10.661","0.21322","364.1"
"12.1599","2385.07","10.684","0.21368","364.8"
"12.1832","2385.48","10.7142","0.214284","365.5"
"12.2066","2385.8","10.744","0.21488","366.2"
"12.2299","2385.94","10.762","0.21524","366.9"
"12.2532","2386.17","10.7798","0.215596","367.6"
"12.2766","2386.42","10.8104","0.216208","368.3"
"12.2999","2386.34","10.8278","0.216556","369"
"12.3232","2386.88","10.8476","0.216952","369.7"
"12.3466","2387","10.8726","0.217452","370.4"
"12.3699","2387.11","10.9013","0.218026","371.1"
"12.3932","2387.26","10.9198","0.218396","371.8"
"12.4166","2387.4","10.9477","0.218954","372.5"
"12.4399","2387.6","10.9612","0.219224","373.2"
"12.4632","2387.72","10.99","0.2198","373.9"
"12.4866","2388.08","11.012","0.22024","374.6"
"12.5099","2388.11","11.034","0.22068","375.3"
"12.5332","2388.26","11.0716","0.221432","376"
"12.5567","2388.76","11.0835","0.22167","376.7"
"12.5799","2388.57","11.1036","0.222072","377.4"
"12.6032","2388.93","11.1314","0.222628","378.1"
"12.6266","2389.24","11.1548","0.223096","378.8"
"12.6499","2389.3","11.179","0.22358","379.5"
"12.6732","2389.62","11.2028","0.224056","380.2"
"12.6966","2389.78","11.2305","0.22461","380.9"
"12.7199","2389.91","11.2501","0.225002","381.6"
"12.7432","2390.04","11.2673","0.225346","382.3"
"12.7666","2390.37","11.2976","0.225952","383"
"12.7899","2390.28","11.3166","0.226332","383.7"
"12.8132","2390.38","11.3473","0.226946","384.4"
"12.8366","2391.01","11.3533","0.227066","385.1"
"12.8599","2390.8","11.3798","0.227596","385.8"
"12.8832","2390.87","11.4109","0.228218","386.5"
"12.9066","2391.41","11.4274","0.228548","387.2"
"12.9299","2391.48","11.4627","0.229254","387.9"
"12.9532","2391.39","11.4804","0.229608","388.6"
"12.9766","2391.92","11.5132","0.230264","389.3"
"12.9999","2391.93","11.5321","0.230642","390"
"13.0232","2391.81","11.5593","0.231186","390.7"
"13.0466","2392.46","11.5827","0.231654","391.4"
"13.0699","2392.39","11.6113","0.232226","392.1"
"13.0933","2392.3","11.6401","0.232802","392.8"
"13.1166","2392.64","11.6677","0.233354","393.5"
"13.1399","2392.83","11.6879","0.233758","394.2"
"13.1632","2392.85","11.7142","0.234284","394.9"
"13.1866","2393.06","11.7461","0.234922","395.6"
"13.2099","2393.27","11.7666","0.235332","396.3"
"13.2332","2393.53","11.7955","0.23591","397"
"13.2566","2393.86","11.8249","0.236498","397.7"
"13.2799","2393.7","11.8457","0.236914","398.4"
"13.3032","2393.55","11.8766","0.237532","399.1"
"13.3266","2394.09","11.9043","0.238086","399.8"
"13.3499","2394.46","11.9261","0.238522","400.5"
"13.3732","2394.57","11.9576","0.239152","401.2"
"13.3966","2394.65","11.9787","0.239574","401.9"
"13.4199","2394.73","12.0089","0.240178","402.6"
"13.4432","2394.94","12.0348","0.240696","403.3"
"13.4666","2395.19","12.0685","0.24137","404"
"13.4899","2395.25","12.0882","0.241764","404.7"
"13.5133","2395.46","12.1151","0.242302","405.4"
"13.5366","2395.47","12.144","0.24288","406.1"
"13.5599","2395.57","12.1673","0.243346","406.8"
"13.5832","2395.91","12.1917","0.243834","407.5"
"13.6066","2396.11","12.23","0.2446","408.2"
"13.6299","2396.16","12.2438","0.244876","408.9"
"13.6532","2396.06","12.2766","0.245532","409.6"
"13.6766","2396.5","12.301","0.24602","410.3"
"13.7","2396.74","12.3359","0.246718","411"
"13.7232","2396.67","12.3559","0.247118","411.7"
"13.7466","2397.16","12.3821","0.247642","412.4"
"13.7699","2397.07","12.4124","0.248248","413.1"
"13.7932","2396.97","12.4342","0.248684","413.8"
"13.8166","2397.26","12.4663","0.249326","414.5"
"13.8399","2397.29","12.4935","0.24987","415.2"
"13.8632","2397.41","12.52","0.2504","415.9"
"13.8866","2397.68","12.5402","0.250804","416.6"
"13.9099","2397.88","12.5817","0.251634","417.3"
"13.9332","2397.94","12.6013","0.252026","418"
"13.9566","2398.03","12.6247","0.252494","418.7"
"13.9799","2398.04","12.6569","0.253138","419.4"
"14.0032","2398.01","12.6804","0.253608","420.1"
"14.0266","2398.22","12.7053","0.254106","420.8"
"14.05","2398.46","12.7285","0.25457","421.5"
"14.0732","2398.38","12.759","0.25518","422.2"
"14.0966","2398.82","12.7866","0.255732","422.9"
"14.12","2398.84","12.8102","0.256204","423.6"
"14.1432","2398.93","12.8433","0.256866","424.3"
"14.1666","2399.28","12.8713","0.257426","425"
"14.1899","2399.15","12.8878","0.257756","425.7"
"14.2132","2399.1","12.9199","0.258398","426.4"
"14.2366","2399.46","12.9477","0.258954","427.1"
"14.2599","2399.76","12.984","0.25968","427.8"
"14.2832","2399.59","13.0073","0.260146","428.5"
"14.3066","2399.66","13.0305","0.26061","429.2"
"14.3299","2399.95","13.0609","0.261218","429.9"
"14.3532","2400.16","13.0846","0.261692","430.6"
"14.3766","2400.11","13.1059","0.262118","431.3"
"14.3999","2400.39","13.1408","0.262816","432"
"14.4232","2400.35","13.167","0.26334","432.7"
"14.4466","2400.63","13.1931","0.263862","433.4"
"14.4699","2400.8","13.2204","0.264408","434.1"
"14.4932","2400.78","13.2537","0.265074","434.8"
"14.5166","2400.93","13.2744","0.265488","435.5"
"14.5399","2401.08","13.3075","0.26615","436.2"
"14.5632","2400.87","13.3313","0.266626","436.9"
"14.5866","2401.01","13.3514","0.267028","437.6"
"14.6099","2401.3","13.378","0.26756","438.3"
"14.6332","2401.14","13.414","0.26828","439"
"14.6566","2401.29","13.4434","0.268868","439.7"
"14.6799","2401.43","13.4692","0.269384","440.4"
"14.7032","2401.5","13.4899","0.269798","441.1"
"14.7266","2401.97","13.5213","0.270426","441.8"
"14.75","2401.81","13.5556","0.271112","442.5"
"14.7732","2401.82","13.573","0.27146","443.2"
"14.7966","2401.93","13.6069","0.272138","443.9"
"14.82","2402.16","13.6351","0.272702","444.6"
"14.8432","2402","13.6634","0.273268","445.3"
"14.8665","2402.13","13.694","0.27388","446"
"14.89","2402.14","13.7245","0.27449","446.7"
"14.9132","2402.11","13.7513","0.275026","447.4"
"14.9366","2402.63","13.7622","0.275244","448.1"
"14.96","2402.67","13.8068","0.276136","448.8"
"14.9832","2402.47","13.8313","0.276626","449.5"
"15.0066","2402.75","13.8573","0.277146","450.2"
"15.0299","2402.92","13.8933","0.277866","450.9"
"15.0532","2402.91","13.9121","0.278242","451.6"
"15.0766","2403.09","13.944","0.27888","452.3"
"15.1","2403.46","13.9547","0.279094","453"
"15.1232","2403.28","14.0007","0.280014","453.7"
"15.1465","2403.27","14.0348","0.280696","454.4"
"15.17","2403.65","14.0526","0.281052","455.1"
"15.1932","2403.65","14.0822","0.281644","455.8"
"15.2165","2403.83","14.1152","0.282304","456.5"
"15.24","2403.87","14.1347","0.282694","457.2"
"15.2632","2403.92","14.1634","0.283268","457.9"
"15.2865","2403.99","14.2065","0.28413","458.6"
"15.31","2404.17","14.2438","0.284876","459.3"
"15.3332","2404.01","14.2719","0.285438","460"
"15.3566","2404.11","14.299","0.28598","460.7"
"15.38","2404.54","14.3272","0.286544","461.4"
"15.4032","2404.6","14.3532","0.287064","462.1"
"15.4265","2404.51","14.3874","0.287748","462.8"
"15.45","2404.77","14.4206","0.288412","463.5"
"15.4732","2404.72","14.448","0.28896","464.2"
"15.4966","2404.84","14.4763","0.289526","464.9"
"15.52","2405.17","14.5106","0.290212","465.6"
"15.5432","2404.64","14.5324","0.290648","466.3"
"15.5665","2404.9","14.5604","0.291208","467"
"15.5899","2405.04","14.5989","0.291978","467.7"
"15.6133","2405.07","14.6155","0.29231","468.4"
"15.6365","2405","14.646","0.29292","469.1"
"15.6599","2405.5","14.6758","0.293516","469.8"
"15.6832","2405.56","14.7068","0.294136","470.5"
"15.7065","2405.47","14.7377","0.294754","471.2"
"15.73","2405.81","14.7727","0.295454","471.9"
"15.7532","2405.7","14.8047","0.296094","472.6"
"15.7765","2405.6","14.8278","0.296556","473.3"
"15.8","2406.13","14.8615","0.29723","474"
"15.8232","2406.05","14.8911","0.297826","474.7"
"15.8465","2406.05","14.9241","0.298482","475.4"
"15.8699","2406.48","14.9538","0.299076","476.1"
"15.8933","2406.43","14.9742","0.299484","476.8"
"15.9166","2406.25","15.0106","0.300212","477.5"
"15.9399","2406.46","15.042","0.30084","478.2"
"15.9633","2406.52","15.0678","0.301356","478.9"
"15.9866","2406.63","15.1062","0.302124","479.6"
"16.0099","2406.78","15.138","0.30276","480.3"
"16.0333","2406.55","15.1658","0.303316","481"
"16.0566","2407.06","15.1992","0.303984","481.7"
"16.0799","2407.55","15.2389","0.304778","482.4"
"16.1033","2407.25","15.2661","0.305322","483.1"
"16.1265","2407.16","15.3039","0.306078","483.8"
"16.1499","2407.38","15.3495","0.30699","484.5"
"16.1733","2407.48","15.3754","0.307508","485.2"
"16.1966","2407.57","15.401","0.30802","485.9"
"16.2199","2407.72","15.435","0.3087","486.6"
"16.2433","2407.62","15.4658","0.309316","487.3"
"16.2665","2407.68","15.4966","0.309932","488"
"16.2899","2407.95","15.5327","0.310654","488.7"
"16.3133","2408.15","15.5543","0.311086","489.4"
"16.3366","2408.18","15.5902","0.311804","490.1"
"16.3599","2408.2","15.6218","0.312436","490.8"
"16.3833","2408.25","15.6491","0.312982","491.5"
"16.4066","2408.57","15.6847","0.313694","492.2"
"16.4299","2408.73","15.7143","0.314286","492.9"
"16.4533","2408.69","15.7429","0.314858","493.6"
"16.4765","2408.46","15.778","0.31556","494.3"
"16.5","2408.67","15.8055","0.31611","495"
"16.5233","2408.87","15.8404","0.316808","495.7"
"16.5465","2408.84","15.8616","0.317232","496.4"
"16.5699","2408.89","15.8962","0.317924","497.1"
"16.5933","2408.99","15.9223","0.318446","497.8"
"16.6165","2408.93","15.9576","0.319152","498.5"
"16.64","2409.16","15.9866","0.319732","499.2"
"16.6633","2409.33","16.0279","0.320558","499.9"
"16.6865","2409.28","16.0464","0.320928","500.6"
"16.7099","2409.52","16.0912","0.321824","501.3"
"16.7332","2409.39","16.1131","0.322262","502"
"16.7566","2409.48","16.1502","0.323004","502.7"
"16.7799","2409.72","16.1748","0.323496","503.4"
"16.8032","2409.9","16.2138","0.324276","504.1"
"16.8265","2409.73","16.2426","0.324852","504.8"
"16.8499","2410.08","16.2851","0.325702","505.5"
"16.8733","2410.09","16.3088","0.326176","506.2"
"16.8965","2409.83","16.3513","0.327026","506.9"
"16.92","2410.26","16.3816","0.327632","507.6"
"16.9433","2410.33","16.4205","0.32841","508.3"
"16.9665","2410.19","16.4562","0.329124","509"
"16.99","2410.21","16.5032","0.330064","509.7"
"17.0133","2410.68","16.5519","0.331038","510.4"
"17.0366","2410.46","16.5806","0.331612","511.1"
"17.06","2410.72","16.6199","0.332398","511.8"
"17.0832","2410.78","16.6558","0.333116","512.5"
"17.1066","2410.73","16.6913","0.333826","513.2"
"17.1299","2410.98","16.7262","0.334524","513.9"
"17.1532","2410.89","16.7585","0.33517","514.6"
"17.1766","2410.76","16.7941","0.335882","515.3"
"17.2","2411.13","16.824","0.33648","516"
"17.2232","2411.33","16.8637","0.337274","516.7"
"17.2465","2411.25","16.8865","0.33773","517.4"
"17.2699","2411.31","16.9271","0.338542","518.1"
"17.2933","2411.23","16.967","0.33934","518.8"
"17.3165","2411.38","16.9888","0.339776","519.5"
"17.3399","2411.68","17.0312","0.340624","520.2"
"17.3633","2411.77","17.067","0.34134","520.9"
"17.3865","2411.49","17.0893","0.341786","521.6"
"17.4099","2411.66","17.1104","0.342208","522.3"
"17.4332","2411.86","17.1504","0.343008","523"
"17.4565","2411.71","17.1771","0.343542","523.7"
"17.4799","2412.06","17.1988","0.343976","524.4"
"17.5032","2411.83","17.235","0.3447","525.1"
"17.5265","2411.97","17.2596","0.345192","525.8"
"17.5499","2412.2","17.2865","0.34573","526.5"
"17.5733","2412.17","17.3179","0.346358","527.2"
"17.5965","2412.3","17.3442","0.346884","527.9"
"17.6199","2412.32","17.3752","0.347504","528.6"
"17.6433","2412.26","17.4012","0.348024","529.3"
"17.6665","2412.38","17.4294","0.348588","530"
"17.6899","2412.5","17.4706","0.349412","530.7"
"17.7133","2412.29","17.4943","0.349886","531.4"
"17.7365","2412.59","17.5167","0.350334","532.1"
"17.7599","2412.52","17.5511","0.351022","532.8"
"17.7833","2412.75","17.5746","0.351492","533.5"
"17.8065","2412.82","17.6086","0.352172","534.2"
"17.8299","2412.62","17.6347","0.352694","534.9"
"17.8533","2413.03","17.6733","0.353466","535.6"
"17.8765","2412.83","17.7012","0.354024","536.3"
"17.8999","2413.06","17.7251","0.354502","537"
"17.9233","2413.21","17.7619","0.355238","537.7"
"17.9465","2413.15","17.7919","0.355838","538.4"
"17.9699","2413.14","17.8192","0.356384","539.1"
"17.9933","2413.25","17.8494","0.356988","539.8"
"18.0166","2413.21","17.875","0.3575","540.5"
"18.0399","2413.02","17.9048","0.358096","541.2"
"18.0633","2413.28","17.9372","0.358744","541.9"
"18.0866","2413.26","17.9696","0.359392","542.6"
"18.1099","2413.42","17.9997","0.359994","543.3"
"18.1333","2413.69","18.0327","0.360654","544"
"18.1565","2413.36","18.0613","0.361226","544.7"
"18.1799","2413.3","18.0972","0.361944","545.4"
"18.2033","2413.63","18.1272","0.362544","546.1"
"18.2266","2413.54","18.1563","0.363126","546.8"
"18.2499","2413.45","18.1849","0.363698","547.5"
"18.2733","2413.83","18.2143","0.364286","548.2"
"18.2966","2413.53","18.2401","0.364802","548.9"
"18.3199","2413.72","18.2793","0.365586","549.6"
"18.3433","2413.9","18.3092","0.366184","550.3"
"18.3666","2413.66","18.342","0.36684","551"
"18.3899","2413.65","18.3752","0.367504","551.7"
"18.4133","2413.62","18.4004","0.368008","552.4"
"18.4366","2413.78","18.4379","0.368758","553.1"
"18.4599","2413.92","18.4789","0.369578","553.8"
"18.4833","2414.05","18.4881","0.369762","554.5"
"18.5066","2413.94","18.5551","0.371102","555.2"
"18.5298","2413.85","18.5695","0.37139","555.9"
"18.5533","2414.1","18.6265","0.37253","556.6"
"18.5766","2414.24","18.6423","0.372846","557.3"
"18.5999","2414.25","18.6721","0.373442","558"
"18.6233","2414.5","18.7048","0.374096","558.7"
"18.6466","2413.98","18.734","0.37468","559.4"
"18.6699","2414.28","18.769","0.37538","560.1"
"18.6933","2414.21","18.7976","0.375952","560.8"
"18.7166","2414.36","18.8276","0.376552","561.5"
"18.7399","2414.17","18.8645","0.37729","562.2"
"18.7633","2414.47","18.8835","0.37767","562.9"
"18.7866","2414.54","18.9222","0.378444","563.6"
"18.8099","2414.42","18.9505","0.37901","564.3"
"18.8332","2414.67","18.9872","0.379744","565"
"18.8566","2414.56","19.0103","0.380206","565.7"
"18.8798","2414.24","19.0519","0.381038","566.4"
"18.9033","2414.45","19.0855","0.38171","567.1"
"18.9266","2414.58","19.1085","0.38217","567.8"
"18.9499","2414.41","19.1382","0.382764","568.5"
"18.9732","2414.42","19.1734","0.383468","569.2"
"18.9966","2414.57","19.2148","0.384296","569.9"
"19.0199","2414.4","19.2401","0.384802","570.6"
"19.0433","2414.72","19.2748","0.385496","571.3"
"19.0666","2413.77","19.3128","0.386256","572"
"19.0899","2413.56","19.3499","0.386998","572.7"
"19.1133","2413.95","19.3867","0.387734","573.4"
"19.1366","2414.04","19.4227","0.38845","574.1"
"19.1599","2414.32","19.4591","0.389182","574.8"
"19.1832","2414.31","19.4986","0.389972","575.5"
"19.2066","2414.26","19.5302","0.390604","576.2"
"19.2299","2414.28","19.5733","0.391466","576.9"
"19.2532","2414.51","19.616","0.39232","577.6"
"19.2766","2414.48","19.649","0.39298","578.3"
"19.2999","2414.43","19.6952","0.393904","579"
"19.3233","2414.51","19.7369","0.394738","579.7"
"19.3466","2414.55","19.7685","0.39537","580.4"
"19.3699","2414.4","19.8082","0.396164","581.1"
"19.3933","2414.5","19.8503","0.397006","581.8"
"19.4166","2414.74","19.8804","0.397608","582.5"
"19.4399","2414.47","19.9183","0.398366","583.2"
"19.4633","2414.62","19.9556","0.399112","583.9"
"19.4866","2414.62","19.988","0.39976","584.6"
"19.5099","2414.55","20.0303","0.400606","585.3"
"19.5332","2414.45","20.0665","0.40133","586"
"19.5566","2414.52","20.098","0.40196","586.7"
"19.5799","2414.34","20.1348","0.402696","587.4"
"19.6032","2414.72","20.1744","0.403488","588.1"
"19.6266","2414.59","20.2113","0.404226","588.8"
"19.6499","2414.44","20.2427","0.404854","589.5"
"19.6732","2414.49","20.2855","0.40571","590.2"
"19.6966","2414.36","20.3169","0.406338","590.9"
"19.7199","2414.44","20.352","0.40704","591.6"
"19.7433","2414.84","20.3837","0.407674","592.3"
"19.7666","2414.76","20.4175","0.40835","593"
"19.7899","2414.52","20.4541","0.409082","593.7"
"19.8132","2414.71","20.4836","0.409672","594.4"
"19.8366","2414.86","20.5155","0.41031","595.1"
"19.8599","2414.76","20.5543","0.411086","595.8"
"19.8833","2414.76","20.5943","0.411886","596.5"
"19.9066","2414.88","20.6254","0.412508","597.2"
"19.9299","2414.62","20.6548","0.413096","597.9"
"19.9533","2415.01","20.6947","0.413894","598.6"
"19.9766","2414.74","20.7253","0.414506","599.3"
"19.9999","2414.71","20.7604","0.415208","600"
"20.0233","2414.79","20.7969","0.415938","600.7"
"20.0466","2414.68","20.8335","0.41667","601.4"
"20.0699","2414.65","20.8663","0.417326","602.1"
"20.0933","2414.81","20.8987","0.417974","602.8"
"20.1166","2414.83","20.939","0.41878","603.5"
"20.1399","2414.54","20.9645","0.41929","604.2"
"20.1633","2414.83","21.0022","0.420044","604.9"
"20.1866","2414.89","21.0422","0.420844","605.6"
"20.2098","2414.5","21.0704","0.421408","606.3"
"20.2332","2414.62","21.1052","0.422104","607"
"20.2566","2414.81","21.1428","0.422856","607.7"
"20.2799","2414.8","21.1892","0.423784","608.4"
"20.3033","2414.83","21.221","0.42442","609.1"
"20.3266","2414.7","21.2458","0.424916","609.8"
"20.3499","2414.57","21.2885","0.425784","610.5"
"20.3733","2414.67","21.322","0.42644","611.2"
"20.3966","2414.94","21.3502","0.427004","611.9"
"20.4199","2414.82","21.3882","0.427764","612.6"
"20.4433","2414.67","21.4248","0.428496","613.3"
"20.4666","2414.95","21.459","0.42918","614"
"20.4899","2414.72","21.4922","0.429844","614.7"
"20.5132","2415.1","21.5299","0.430598","615.4"
"20.5366","2414.99","21.5587","0.431174","616.1"
"20.5598","2414.5","21.6025","0.43205","616.8"
"20.5832","2414.79","21.6404","0.432808","617.5"
"20.6067","2415.08","21.6645","0.43329","618.2"
"20.6299","2414.75","21.6969","0.433938","618.9"
"20.6532","2414.81","21.746","0.43492","619.6"
"20.6766","2415.05","21.7762","0.435524","620.3"
"20.6999","2414.94","21.8197","0.436394","621"
"20.7233","2414.91","21.849","0.43698","621.7"
"20.7466","2415.14","21.8714","0.437428","622.4"
"20.7698","2414.79","21.9203","0.438406","623.1"
"20.7933","2414.94","21.9481","0.438962","623.8"
"20.8166","2415.03","21.9836","0.439672","624.5"
"20.8399","2414.72","22.0208","0.440416","625.2"
"20.8632","2415.03","22.0495","0.44099","625.9"
"20.8866","2415.03","22.0857","0.441714","626.6"
"20.9099","2414.88","22.1264","0.442528","627.3"
"20.9332","2415.16","22.1528","0.443056","628"
"20.9566","2415.21","22.1968","0.443936","628.7"
"20.9799","2415.13","22.2214","0.444428","629.4"
"21.0032","2414.88","22.2581","0.445162","630.1"
"21.0266","2414.94","22.2957","0.445914","630.8"
"21.0499","2414.92","22.329","0.44658","631.5"
"21.0732","2415.04","22.3587","0.447174","632.2"
"21.0966","2415.13","22.3902","0.447804","632.9"
"21.1198","2414.87","22.4239","0.448478","633.6"
"21.1433","2415.01","22.4586","0.449172","634.3"
"21.1666","2415.21","22.4945","0.44989","635"
"21.1899","2415.02","22.5233","0.450466","635.7"
"21.2132","2414.89","22.5574","0.451148","636.4"
"21.2366","2414.68","22.5965","0.45193","637.1"
"21.2599","2411.63","22.6235","0.45247","637.8"
"21.2832","2410.74","22.6624","0.453248","638.5"
"21.3066","2410.96","22.7042","0.454084","639.2"
"21.3299","2411.19","22.7423","0.454846","639.9"
"21.3532","2410.4","22.7789","0.455578","640.6"
"21.3766","2410.41","22.8017","0.456034","641.3"
"21.3999","2410.47","22.8376","0.456752","642"
"21.4232","2410.8","22.8711","0.457422","642.7"
"21.4466","2410.88","22.9024","0.458048","643.4"
"21.4699","2410.58","22.9369","0.458738","644.1"
"21.4932","2410.82","22.9841","0.459682","644.8"
"21.5166","2410.85","23.0108","0.460216","645.5"
"21.5399","2410.68","23.046","0.46092","646.2"
"21.5632","2410.55","23.0857","0.461714","646.9"
"21.5866","2410.62","23.1252","0.462504","647.6"
"21.6099","2410.29","23.1533","0.463066","648.3"
"21.6332","2410.37","23.1872","0.463744","649"
"21.6566","2409.36","23.2259","0.464518","649.7"
"21.68","2408.28","23.2664","0.465328","650.4"
"21.7032","2406.56","23.3096","0.466192","651.1"
"21.7266","2406.27","23.3501","0.467002","651.8"
"21.75","2406.04","23.3976","0.467952","652.5"
"21.7732","2403.66","23.4324","0.468648","653.2"
"21.7966","2403.39","23.4804","0.469608","653.9"
"21.8199","2403.01","23.5246","0.470492","654.6"
"21.8432","2398.96","23.5691","0.471382","655.3"
"21.8666","2397.14","23.617","0.47234","656"
"21.8899","2391.29","23.6762","0.473524","656.7"
"21.9132","2379.96","23.7315","0.47463","657.4"
"21.9367","1937.27","23.793","0.47586","658.1"
"21.9599","1842.11","24.0588","0.481176","658.8"
"21.9832","1830.16","24.1313","0.482626","659.5"
"22.0066","1829.85","24.1908","0.483816","660.2"
"22.0299","1831.18","24.2421","0.484842","660.9"
"22.0532","1832.58","24.3107","0.486214","661.6"
"22.0766","1833.8","24.365","0.4873","662.3"
"22.0999","1834.58","24.4223","0.488446","663"
"22.1232","1834.87","24.4866","0.489732","663.7"
"22.1466","1834.81","24.5517","0.491034","664.4"
"22.1699","1834.42","24.5924","0.491848","665.1"
"22.1932","1834.3","24.6374","0.492748","665.8"
"22.2166","1834.12","24.6809","0.493618","666.5"
"22.2399","1834.09","24.7207","0.494414","667.2"
"22.2632","1833.28","24.7522","0.495044","667.9"
"22.2866","1833.58","24.8031","0.496062","668.6"
"22.3099","1832.45","24.8443","0.496886","669.3"
"22.3332","1826.67","24.8852","0.497704","670"
"22.3566","1815.54","24.9476","0.498952","670.7"
"22.3799","1811.26","24.9925","0.49985","671.4"
"22.4033","1804.2","25.0512","0.501024","672.1"
"22.4266","1797.81","25.0953","0.501906","672.8"
"22.4499","1771.31","25.1768","0.503536","673.5"
"22.4732","1760.48","25.2393","0.504786","674.2"
"22.4965","1727.6","25.3025","0.50605","674.9"
"22.5199","1687.84","25.3622","0.507244","675.6"
"22.5432","1655.48","25.415","0.5083","676.3"
"22.5666","1641.79","25.469","0.50938","677"
"22.5899","1611.57","25.5217","0.510434","677.7"
"22.6132","1594.8","25.5927","0.511854","678.4"
"22.6366","1578.55","25.6511","0.513022","679.1"
"22.6599","1563.34","25.7094","0.514188","679.8"
"22.6832","1535.65","25.7952","0.515904","680.5"
"22.7066","1493.16","25.8634","0.517268","681.2"
"22.7299","1433.36","25.9489","0.518978","681.9"
"22.7532","1319.51","26.0615","0.52123","682.6"
"22.7766","1152.63","26.1781","0.523562","683.3"
"22.7999","845.075","26.3465","0.52693","684"
"22.8232","790.817","26.4504","0.529008","684.7"
"22.8466","786.65","26.512","0.53024","685.4"
"22.8699","791.235","26.5628","0.531256","686.1"
"22.8932","798.442","26.6046","0.532092","686.8"
"22.9166","806.636","26.6384","0.532768","687.5"
"22.9399","814.164","26.6862","0.533724","688.2"
"22.9632","821.153","26.7197","0.534394","688.9"
"22.9866","826.409","26.7648","0.535296","689.6"
"23.01","831.037","26.8123","0.536246","690.3"
"23.0332","834.42","26.851","0.53702","691"
"23.0566","836.297","26.898","0.53796","691.7"
"23.0799","837.77","26.9303","0.538606","692.4"
"23.1032","831.979","26.9812","0.539624","693.1"
"23.1266","829.104","27.0283","0.540566","693.8"
"23.1499","827.341","27.0863","0.541726","694.5"
"23.1732","825.798","27.1451","0.542902","695.2"
"23.1966","825.488","27.199","0.54398","695.9"
"23.2199","826.156","27.2539","0.545078","696.6"
"23.2432","826.911","27.3096","0.546192","697.3"
"23.2666","827.246","27.3659","0.547318","698"
"23.2899","828.071","27.4139","0.548278","698.7"
"23.3132","828.841","27.4635","0.54927","699.4"
"23.3366","829.628","27.5111","0.550222","700.1"
"23.3599","830.308","27.5518","0.551036","700.8"
"23.3832","830.83","27.5922","0.551844","701.5"
"23.4066","831.46","27.6373","0.552746","702.2"
"23.43","832.283","27.6958","0.553916","702.9"
"23.4532","832.992","27.7417","0.554834","703.6"
"23.4766","833.79","27.7918","0.555836","704.3"
"23.4999","834.331","27.8606","0.557212","705"
"23.5232","834.732","27.917","0.55834","705.7"
"23.5466","835.554","27.9742","0.559484","706.4"
"23.5699","835.93","28.0492","0.56081","707.1"
"23.5932","836.617","28.1107","0.562214","707.8"
"23.6166","828.525","28.1641","0.563282","708.5"
"23.6399","825.809","28.1978","0.563956","709.2"
"23.6632","824.14","28.2418","0.564836","709.9"
"23.6866","822.745","28.2845","0.56569","710.6"
"23.7099","812.492","28.3237","0.566474","711.3"
"23.7332","809.947","28.3738","0.567476","712"
"23.7565","807.672","28.4117","0.568234","712.7"
"23.78","796.981","28.4606","0.569212","713.4"
"23.8032","794.642","28.5026","0.570052","714.1"
"23.8266","793.559","28.5617","0.571234","714.8"
"23.85","792.966","28.6098","0.572196","715.5"
"23.8732","793.042","28.6531","0.573062","716.2"
"23.8966","793.338","28.7096","0.574192","716.9"
"23.92","794.176","28.7544","0.575088","717.6"
"23.9432","794.594","28.8114","0.576228","718.3"
"23.9666","795.447","28.8552","0.577104","719"
"23.9899","795.655","28.909","0.57818","719.7"
"23.9932","795.514","28.9274","0.578548","719.8"