File: experimental_data/tensile_specimen_test_data/tensile_test_data/20250311/SSS 1 03-11-25 12 36 06 下午/数采：横梁, … - (实时值).csv
"文件路径: C:\Users\Lenovo\Desktop\Wayne\20250311\SSS 1 03-11-25 12 36 06 下午\数采：横梁, … - (实时值).csv   "
"试验: MTS EM 拉伸试验-W 2"
"试验运行: SSS 1"
"日期: 2025/3/11 11:47:15"
""
""
"横梁 ","力 ","应变 ","应力 ","时间 "
"mm","N","mm/mm","N/mm²","sec"
"0.00409855","10.2499","3.37665e-05","0.525634","0.149"
"0.00749849","16.5354","6.20993e-05","0.847969","0.249"
"0.010945","23.7911","9.08202e-05","1.22006","0.349"
"0.0143449","31.5469","0.000119153","1.61779","0.449"
"0.0176983","39.3467","0.000147486","2.01778","0.549"
"0.0210517","47.5796","0.000175042","2.439979","0.649"
"0.0244516","55.6075","0.000203375","2.85167","0.749"
"0.0277584","63.5453","0.000230932","3.25873","0.849"
"0.0311583","71.9305","0.000259653","3.68875","0.949"
"0.0344651","80.0896","0.000286821","4.10716","1.049"
"0.0378651","88.7674","0.000315154","4.55218","1.149"
"0.0411253","96.7833","0.000342322","4.96325","1.249"
"0.0445252","105.519","0.000370655","5.41122","1.349"
"0.0477388","113.847","0.000397824","5.83832","1.449"
"0.0511388","122.433","0.000425768","6.27862","1.549"
"0.054399","130.666","0.000452937","6.70083","1.649"
"0.0577989","139.284","0.00048127","7.142757","1.749"
"0.0611057","147.602","0.000508826","7.569308","1.849"
"0.0644591","156.134","0.000537159","8.00688","1.949"
"0.0678124","164.818","0.000564716","8.452202","2.049"
"0.0711658","173.466","0.000593048","8.895717","2.149"
"0.0744726","181.639","0.000620217","9.314796","2.249"
"0.077826","189.975","0.000648162","9.742302","2.349"
"0.0811327","198.192","0.000675718","10.1637","2.449"
"0.0844861","206.076","0.000703663","10.568","2.549"
"0.0877929","214.12","0.000731607","10.9805","2.649"
"0.0910997","222.187","0.000758776","11.3942","2.749"
"0.0944996","229.792","0.000787109","11.7842","2.849"
"0.0978064","237.676","0.000814665","12.1885","2.949"
"0.10116","245.493","0.000842998","12.5894","3.049"
"0.104467","252.96","0.000870167","12.9723","3.149"
"0.107866","260.249","0.000898499","13.3461","3.249"
"0.111127","267.386","0.000925668","13.71209","3.349"
"0.11448","275.198","0.000954001","14.1127","3.449"
"0.117787","282.097","0.000981169","14.4665","3.549"
"0.12114","289.539","0.0010095","14.8481","3.649"
"0.124447","296.611","0.00103667","15.2108","3.749"
"0.1278","303.68","0.001065","15.57335","3.849"
"0.131107","310.838","0.00109217","15.94042","3.949"
"0.134507","318.247","0.0011205","16.32036","4.049"
"0.137814","325.204","0.00114806","16.6771","4.149"
"0.141167","332.373","0.00117601","17.0448","4.249"
"0.144474","339.186","0.00120356","17.3942","4.349"
"0.147827","346.367","0.00123151","17.7624","4.449"
"0.151134","353.164","0.00125945","18.111","4.549"
"0.154441","360.058","0.00128701","18.46453","4.649"
"0.157794","367.293","0.00131495","18.8355","4.749"
"0.161148","374.089","0.00134251","19.184","4.849"
"0.164501","381.012","0.00137045","19.53907","4.949"
"0.167761","387.771","0.00139801","19.8857","5.049"
"0.171161","394.549","0.00142596","20.2333","5.149"
"0.174421","401.215","0.00145351","20.57511","5.249"
"0.177821","408.243","0.00148184","20.93555","5.349"
"0.181128","414.776","0.00150901","21.2705","5.449"
"0.184528","421.491","0.00153735","21.6149","5.549"
"0.187788","428.092","0.0015649","21.9534","5.649"
"0.191188","434.599","0.00159285","22.2871","5.749"
"0.194448","441.02","0.0016204","22.6164","5.849"
"0.197848","447.677","0.00164835","22.9578","5.949"
"0.201155","453.874","0.00167591","23.2756","6.049"
"0.204462","460.219","0.00170385","23.601","6.149"
"0.207769","466.389","0.00173141","23.9174","6.249"
"0.211122","472.596","0.00175935","24.2357","6.349"
"0.214475","478.707","0.00178691","24.5491","6.449"
"0.217782","484.729","0.00181485","24.8579","6.549"
"0.221182","490.718","0.0018428","25.165","6.649"
"0.224489","496.396","0.00187035","25.4562","6.749"
"0.227842","502.167","0.0018983","25.7521","6.849"
"0.231149","507.535","0.00192585","26.0274","6.949"
"0.234502","513.102","0.0019538","26.3129","7.049"
"0.237763","518.224","0.00198136","26.5756","7.149"
"0.241163","523.27","0.0020093","26.8344","7.249"
"0.244423","527.85","0.00203647","27.0692","7.349"
"0.247823","532.971","0.0020648","27.33182","7.449"
"0.251083","537.315","0.00209197","27.5546","7.549"
"0.254483","541.954","0.00212069","27.79249","7.649"
"0.25779","546.299","0.00214786","28.0153","7.749"
"0.26119","550.594","0.00217658","28.2356","7.849"
"0.264496","553.952","0.00220375","28.4078","7.949"
"0.26785","557.604","0.00223169","28.5951","8.049"
"0.27111","560.882","0.00225886","28.7632","8.149"
"0.27451","564.174","0.0022872","28.932","8.249"
"0.277817","566.868","0.00231475","29.0701","8.349"
"0.281124","569.586","0.00234231","29.20954","8.449"
"0.28443","572.105","0.00237025","29.33874","8.549"
"0.287784","574.372","0.00239781","29.45497","8.649"
"0.291184","576.222","0.00242614","29.5498","8.749"
"0.29449","578.191","0.0024537","29.6508","8.849"
"0.297844","579.521","0.00248203","29.719","8.949"
"0.301151","580.71","0.0025092","29.77999","9.049"
"0.304504","582.086","0.00253714","29.8505","9.149"
"0.307764","582.785","0.0025647","29.8864","9.249"
"0.311164","583.477","0.00259303","29.92189","9.349"
"0.314424","583.737","0.0026202","29.9353","9.449"
"0.317824","584.41","0.00264815","29.9698","9.549"
"0.321084","584.635","0.0026757","29.9813","9.649"
"0.324531","584.848","0.00270404","29.9922","9.749"
"0.327791","585.015","0.00273121","30.0008","9.849"
"0.331191","585.253","0.00275954","30.013","9.949"
"0.334451","585.157","0.00278709","30.008","10.049"
"0.337851","585.601","0.00281504","30.0308","10.149"
"0.341158","585.2","0.0028426","30.0102","10.249"
"0.344465","585.408","0.00287054","30.0209","10.349"
"0.347818","585.278","0.0028981","30.0143","10.449"
"0.351172","585.041","0.00292604","30.0021","10.549"
"0.354478","585.109","0.0029536","30.0056","10.649"
"0.357785","585.152","0.00298115","30.0078","10.749"
"0.361139","585.203","0.0030091","30.01042","10.849"
"0.364445","585.299","0.00303704","30.0154","10.949"
"0.367799","585.345","0.00306499","30.0177","11.049"
"0.371105","585.411","0.00309216","30.02106","11.149"
"0.374505","585.752","0.00312088","30.0385","11.249"
"0.377812","585.829","0.00314805","30.0425","11.349"
"0.381166","586.071","0.00317599","30.05492","11.449"
"0.384426","585.886","0.00320355","30.0454","11.549"
"0.387872","586.218","0.00323188","30.0625","11.649"
"0.391132","586.063","0.00325905","30.0545","11.749"
"0.394486","586.099","0.00328738","30.0564","11.849"
"0.397746","585.94","0.00331416","30.0482","11.949"
"0.401146","585.795","0.0033425","30.0408","12.049"
"0.404453","585.322","0.00337005","30.01652","12.149"
"0.407806","585.124","0.00339838","30.00635","12.249"
"0.41116","584.92","0.00342594","29.99592","12.349"
"0.414513","584.978","0.00345389","29.9989","12.449"
"0.41782","584.75","0.00348183","29.9872","12.549"
"0.421173","584.825","0.00350939","29.991","12.649"
"0.42448","584.817","0.00353733","29.9906","12.749"
"0.427833","584.686","0.00356489","29.98392","12.849"
"0.43114","584.779","0.00359244","29.9886","12.949"
"0.434447","584.792","0.00362","29.98935","13.049"
"0.4378","584.987","0.00364833","29.9993","13.149"
"0.441107","584.824","0.0036755","29.991","13.249"
"0.444507","585.149","0.00370384","30.0076","13.349"
"0.447767","585.102","0.00373139","30.0052","13.449"
"0.451214","585.329","0.00375972","30.0169","13.549"
"0.454474","584.907","0.00378689","29.9953","13.649"
"0.457827","585.208","0.00381484","30.0107","13.749"
"0.461087","585.145","0.00384239","30.00743","13.849"
"0.464487","585.36","0.00387073","30.0184","13.949"
"0.467794","585.216","0.0038979","30.0111","14.049"
"0.471147","585.364","0.00392584","30.01867","14.149"
"0.474408","585.303","0.0039534","30.01554","14.249"
"0.477808","585.496","0.00398173","30.0254","14.349"
"0.481114","585.355","0.00400929","30.0182","14.449"
"0.484468","585.374","0.00403723","30.0192","14.549"
"0.487821","585.315","0.00406479","30.0162","14.649"
"0.491174","585.104","0.00409273","30.0053","14.749"
"0.494481","584.762","0.00412068","29.9878","14.849"
"0.497788","584.402","0.00414785","29.96934","14.949"
"0.501141","584.003","0.00417579","29.9488","15.049"
"0.504448","583.603","0.00420373","29.9284","15.149"
"0.507848","583.213","0.00423168","29.9084","15.249"
"0.511108","582.581","0.00425885","29.876","15.349"
"0.514508","582.128","0.00428718","29.8527","15.449"
"0.517768","581.391","0.00431474","29.8149","15.549"
"0.521168","580.895","0.00434268","29.7895","15.649"
"0.524429","579.674","0.00437024","29.7269","15.749"
"0.527829","579.129","0.00439857","29.6989","15.849"
"0.531135","578.246","0.00442574","29.6537","15.949"
"0.534489","577.801","0.00445407","29.6308","16.049"
"0.537796","576.756","0.00448124","29.5772","16.149"
"0.541149","576.646","0.00450957","29.5716","16.249"
"0.544456","576.109","0.00453713","29.544","16.349"
"0.547856","575.583","0.00456508","29.5171","16.449"
"0.551116","575.418","0.00459263","29.5086","16.549"
"0.554469","575.413","0.00462058","29.5084","16.649"
"0.557776","575.509","0.00464813","29.5133","16.749"
"0.561129","575.418","0.00467608","29.5086","16.849"
"0.564529","575.536","0.00470402","29.5146","16.949"
"0.567836","575.434","0.00473158","29.50943","17.049"
"0.571143","575.58","0.00475952","29.5169","17.149"
"0.57445","575.465","0.00478708","29.51103","17.249"
"0.57785","575.572","0.00481502","29.5165","17.349"
"0.581156","575.605","0.00484258","29.5182","17.449"
"0.58451","575.508","0.00487053","29.5132","17.549"
"0.58777","575.742","0.00489769","29.5252","17.649"
"0.59117","576.003","0.00492603","29.5386","17.749"
"0.59443","576.129","0.0049532","29.5451","17.849"
"0.59783","576.801","0.00498153","29.5796","17.949"
"0.60109","577.195","0.00500909","29.59974","18.049"
"0.604537","577.854","0.00503742","29.6335","18.149"
"0.607797","578.248","0.00506497","29.65374","18.249"
"0.611197","578.829","0.00509292","29.6835","18.349"
"0.614457","579.19","0.00512009","29.7021","18.449"
"0.617857","579.922","0.00514842","29.7396","18.549"
"0.621117","580.015","0.00517559","29.74437","18.649"
"0.624471","580.541","0.00520353","29.7713","18.749"
"0.627777","580.797","0.00523109","29.7844","18.849"
"0.631131","581.245","0.00525904","29.80741","18.949"
"0.634484","581.26","0.00528698","29.80819","19.049"
"0.637791","581.562","0.00531454","29.8237","19.149"
"0.641191","581.681","0.00534287","29.8298","19.249"
"0.644498","581.619","0.00537081","29.8266","19.349"
"0.647851","581.691","0.00539876","29.8303","19.449"
"0.651111","581.156","0.00542593","29.8029","19.549"
"0.654511","581.099","0.00545387","29.8","19.649"
"0.657771","580.701","0.00548143","29.7796","19.749"
"0.661171","580.571","0.00550937","29.7729","19.849"
"0.664432","580.035","0.00553654","29.7454","19.949"
"0.667831","579.685","0.00556487","29.7274","20.049"
"0.671092","578.933","0.00559243","29.68888","20.149"
"0.674538","578.713","0.00562076","29.6776","20.249"
"0.677798","578.293","0.00564832","29.6561","20.349"
"0.681198","578.184","0.00567626","29.6505","20.449"
"0.684459","577.626","0.00570343","29.62186","20.549"
"0.687812","577.557","0.00573138","29.6183","20.649"
"0.691119","577.044","0.00575932","29.592","20.749"
"0.694472","576.735","0.00578688","29.5762","20.849"
"0.697779","576.084","0.00581444","29.54275","20.949"
"0.701132","575.497","0.00584238","29.5127","21.049"
"0.704486","574.694","0.00587033","29.4715","21.149"
"0.707792","574.072","0.00589788","29.43958","21.249"
"0.711146","573.399","0.00592621","29.4051","21.349"
"0.714453","572.813","0.00595338","29.375","21.449"
"0.717852","571.962","0.00598172","29.3314","21.549"
"0.721159","571.251","0.00600927","29.2949","21.649"
"0.724513","570.586","0.00603722","29.2608","21.749"
"0.727773","569.417","0.00606439","29.2009","21.849"
"0.731173","569.089","0.00609311","29.18405","21.949"
"0.73448","568.294","0.00612027","29.1433","22.049"
"0.737833","568.07","0.00614822","29.1318","22.149"
"0.741093","567.585","0.00617539","29.10693","22.249"
"0.744493","567.067","0.00620411","29.0803","22.349"
"0.747753","566.792","0.00623128","29.0663","22.449"
"0.751153","566.762","0.00625922","29.06474","22.549"
"0.75446","566.529","0.00628678","29.0528","22.649"
"0.75786","566.795","0.00631511","29.0664","22.749"
"0.761167","566.33","0.00634267","29.0426","22.849"
"0.764474","566.115","0.00637022","29.0315","22.949"
"0.767827","565.95","0.00639817","29.0231","23.049"
"0.77118","565.781","0.00642611","29.0144","23.149"
"0.774487","565.222","0.00645406","28.9857","23.249"
"0.777794","565.32","0.00648123","28.9908","23.349"
"0.781147","564.807","0.00650917","28.96447","23.449"
"0.784454","564.608","0.00653673","28.9543","23.549"
"0.787854","564.172","0.00656506","28.9319","23.649"
"0.791114","563.745","0.00659223","28.91","23.749"
"0.794514","563.496","0.00662056","28.8972","23.849"
"0.797821","563.258","0.00664812","28.885","23.949"
"0.801174","563.002","0.00667645","28.87192","24.049"
"0.804481","562.509","0.00670362","28.84664","24.149"
"0.807834","562.4","0.00673156","28.84102","24.249"
"0.811095","562.204","0.00675912","28.83098","24.349"
"0.814495","562.222","0.00678707","28.8319","24.449"
"0.817755","561.941","0.00681423","28.8175","24.549"
"0.821155","562.254","0.00684257","28.8336","24.649"
"0.824415","562.009","0.00687012","28.821","24.749"
"0.827815","562.098","0.00689807","28.8256","24.849"
"0.831168","561.953","0.00692601","28.81809","24.949"
"0.834522","561.79","0.00695396","28.8098","25.049"
"0.837828","561.661","0.00698151","28.8031","25.149"
"0.841135","561.585","0.00700907","28.79923","25.249"
"0.844488","561.757","0.00703702","28.8081","25.349"
"0.847795","561.507","0.00706457","28.7952","25.449"
"0.851149","561.367","0.00709252","28.7881","25.549"
"0.854409","561.518","0.00711969","28.7958","25.649"
"0.857855","561.796","0.00714841","28.81","25.749"
"0.861116","562.11","0.00717558","28.8262","25.849"
"0.864515","562.417","0.00720391","28.84187","25.949"
"0.867776","562.568","0.00723146","28.84966","26.049"
"0.871222","562.872","0.0072598","28.8652","26.149"
"0.874482","562.562","0.00728697","28.8493","26.249"
"0.877836","562.714","0.00731491","28.8571","26.349"
"0.881096","562.253","0.00734208","28.8335","26.449"
"0.884496","562.423","0.0073708","28.8422","26.549"
"0.887803","561.805","0.00739797","28.81051","26.649"
"0.891156","561.71","0.00742591","28.8056","26.749"
"0.894463","561.35","0.00745347","28.78717","26.849"
"0.897816","561.305","0.0074818","28.7849","26.949"
"0.90117","560.646","0.00750936","28.7511","27.049"
"0.904476","560.305","0.00753692","28.7336","27.149"
"0.90783","559.734","0.00756486","28.7043","27.249"
"0.911137","559.182","0.00759242","28.676","27.349"
"0.91449","558.554","0.00762036","28.64379","27.449"
"0.917797","557.816","0.00764792","28.606","27.549"
"0.92115","557.264","0.00767586","28.57766","27.649"
"0.924457","556.544","0.00770342","28.54071","27.749"
"0.927857","556.009","0.00773175","28.5133","27.849"
"0.931117","555.447","0.00775892","28.4845","27.949"
"0.934517","555.353","0.00778725","28.4796","28.049"
"0.937731","554.677","0.00781442","28.445","28.149"
"0.941177","554.915","0.00784275","28.4572","28.249"
"0.944437","554.359","0.00786992","28.4287","28.349"
"0.947884","554.653","0.00789864","28.44372","28.449"
"0.951144","554.43","0.00792581","28.4323","28.549"
"0.954497","554.364","0.00795376","28.4289","28.649"
"0.957804","553.999","0.00798131","28.41019","28.749"
"0.961204","554.052","0.00800965","28.4129","28.849"
"0.964464","553.626","0.00803681","28.3911","28.949"
"0.967818","553.495","0.00806476","28.3843","29.049"
"0.971124","553.248","0.00809232","28.37171","29.149"
"0.974478","553.309","0.00812026","28.3748","29.249"
"0.977785","553.018","0.00814821","28.3599","29.349"
"0.981091","553.278","0.00817576","28.3732","29.449"
"0.984538","553.628","0.0082041","28.3912","29.549"
"0.987845","553.835","0.00823165","28.40181","29.649"
"0.991198","554.243","0.0082596","28.4227","29.749"
"0.994458","554.459","0.00828676","28.4338","29.849"
"0.997858","554.924","0.0083151","28.4576","29.949"
"1.00112","555.333","0.00834227","28.4786","30.049"
"1.00447","555.805","0.0083706","28.5028","30.149"
"1.00773","556.158","0.00839738","28.5209","30.249"
"1.01118","556.95","0.0084261","28.5616","30.349"
"1.01444","557.165","0.00845327","28.5726","30.449"
"1.01784","557.641","0.0084816","28.597","30.549"
"1.02115","557.855","0.00850916","28.60796","30.649"
"1.02455","558.478","0.00853749","28.63988","30.749"
"1.02781","558.939","0.00856505","28.6636","30.849"
"1.03116","559.038","0.00859299","28.6686","30.949"
"1.03447","559.191","0.00862016","28.6765","31.049"
"1.03782","559.52","0.0086481","28.6933","31.149"
"1.04113","559.864","0.00867566","28.711","31.249"
"1.04443","559.827","0.00870361","28.7091","31.349"
"1.04779","560.316","0.00873116","28.7341","31.449"
"1.05109","560.591","0.00875872","28.74827","31.549"
"1.05449","561.277","0.00878744","28.78346","31.649"
"1.0578","561.446","0.00881461","28.7921","31.749"
"1.0612","561.929","0.00884294","28.8169","31.849"
"1.06446","562.046","0.00887011","28.8229","31.949"
"1.06786","562.275","0.00889844","28.8346","32.049"
"1.07107","562.672","0.00892561","28.855","32.149"