File: experimental_data/tensile_specimen_test_data/tensile_test_data/20250312/original_data/SSS 4 03-12-25 16 18 12 下午/数采：横梁, … - (实时值).csv
"文件路径: C:\Users\Lenovo\Desktop\Wayne\20250312\原始数据\SSS 4 03-12-25 16 18 12 下午\数采：横梁, … - (实时值).csv   "
"试验: 拉伸试验（UNIVER）      视频引伸计采集变形-W 1"
"试验运行: SSS 4"
"日期: 2025/3/12 12:23:57"
""
""
"横梁 ","力 ","视频引伸计变形 ","应变 ","时间 "
"mm","N","mm","mm/mm","sec"
"0.0023753","-4.26462","0.0002","4e-06","0.1"
"0.0198873","-1.40904","-0.0065","-0.00013","0.6"
"0.0366075","1.44256","-0.0039","-7.8e-05","1.1"
"0.0532346","4.41339","0.0012","2.4e-05","1.6"
"0.0699083","7.09356","0.0099","0.000198","2.1"
"0.0866285","10.0108","0.0181","0.000362","2.6"
"0.103256","12.6432","0.0275","0.00055","3.1"
"0.119929","15.5912","0.0365","0.00073","3.6"
"0.136603","18.4036","0.047","0.00094","4.1"
"0.15323","21.5055","0.0569","0.001138","4.6"
"0.169997","24.451","0.0677","0.001354","5.1"
"0.186577","27.0577","0.0771","0.001542","5.6"
"0.203251","30.0682","0.0891","0.001782","6.1"
"0.219925","32.7345","0.0984","0.001968","6.6"
"0.236552","35.7025","0.1109","0.002218","7.1"
"0.253272","38.4817","0.1212","0.002424","7.6"
"0.269899","41.2656","0.1339","0.002678","8.1"
"0.286573","43.9923","0.1428","0.002856","8.6"
"0.303246","46.7865","0.1557","0.003114","9.1"
"0.31992","49.7019","0.1647","0.003294","9.6"
"0.336594","52.119","0.1766","0.003532","10.1"
"0.353314","55.1614","0.1868","0.003736","10.6"
"0.369895","58.0397","0.1997","0.003994","11.1"
"0.386615","60.8143","0.2089","0.004178","11.6"
"0.403242","63.5328","0.2224","0.004448","12.1"
"0.419869","66.3509","0.2315","0.00463","12.6"
"0.436636","69.1841","0.2448","0.004896","13.1"
"0.453263","71.7658","0.2551","0.005102","13.6"
"0.469936","74.6824","0.2679","0.005358","14.1"
"0.48661","77.4549","0.2778","0.005556","14.6"
"0.503191","80.0043","0.2911","0.005822","15.1"
"0.519958","82.9673","0.3005","0.00601","15.6"
"0.536538","85.7295","0.3127","0.006254","16.1"
"0.553305","88.5198","0.323","0.00646","16.6"
"0.569932","91.162","0.3356","0.006712","17.1"
"0.586559","93.8089","0.3458","0.006916","17.6"
"0.603279","96.5029","0.3596","0.007192","18.1"
"0.619906","99.2553","0.3692","0.007384","18.6"
"0.63658","101.814","0.3815","0.00763","19.1"
"0.653254","104.704","0.3917","0.007834","19.6"
"0.669927","107.385","0.4049","0.008098","20.1"
"0.686554","110.218","0.4146","0.008292","20.6"
"0.703321","113.032","0.4277","0.008554","21.1"
"0.719902","115.669","0.4381","0.008762","21.6"
"0.736622","118.146","0.452","0.00904","22.1"
"0.753249","121.137","0.4611","0.009222","22.6"
"0.769876","123.778","0.4726","0.009452","23.1"
"0.786596","126.277","0.4837","0.009674","23.6"
"0.803223","129.045","0.4963","0.009926","24.1"
"0.819944","131.616","0.5063","0.010126","24.6"
"0.836617","134.332","0.5171","0.010342","25.1"
"0.853244","136.989","0.5296","0.010592","25.6"
"0.869965","139.686","0.5401","0.010802","26.1"
"0.886545","142.291","0.5531","0.011062","26.6"
"0.903219","144.921","0.5625","0.01125","27.1"
"0.919939","147.617","0.5752","0.011504","27.6"
"0.936613","150.182","0.5847","0.011694","28.1"
"0.95324","152.899","0.5978","0.011956","28.6"
"0.96996","155.513","0.6088","0.012176","29.1"
"0.986541","158.099","0.6214","0.012428","29.6"
"1.00326","160.802","0.6319","0.012638","30.1"
"1.01993","163.455","0.6435","0.01287","30.6"
"1.03656","166.007","0.6545","0.01309","31.1"
"1.05333","168.702","0.6674","0.013348","31.6"
"1.06986","171.27","0.6775","0.01355","32.1"
"1.08663","173.868","0.6913","0.013826","32.6"
"1.10326","176.371","0.7018","0.014036","33.1"
"1.11993","179.025","0.7142","0.014284","33.6"
"1.1366","181.852","0.724","0.01448","34.1"
"1.15323","184.365","0.7373","0.014746","34.6"
"1.1699","186.837","0.7485","0.01497","35.1"
"1.18662","189.566","0.7611","0.015222","35.6"
"1.20325","192.056","0.7708","0.015416","36.1"
"1.21993","194.828","0.7834","0.015668","36.6"
"1.2366","197.19","0.793","0.01586","37.1"
"1.25323","199.766","0.8058","0.016116","37.6"
"1.26995","202.459","0.8164","0.016328","38.1"
"1.28657","204.945","0.83","0.0166","38.6"
"1.30325","207.571","0.8404","0.016808","39.1"
"1.31997","209.883","0.8529","0.017058","39.6"
"1.33655","212.488","0.8633","0.017266","40.1"
"1.35327","215.013","0.8762","0.017524","40.6"
"1.36994","217.621","0.8865","0.01773","41.1"
"1.38657","220.166","0.8998","0.017996","41.6"
"1.40334","222.86","0.9095","0.01819","42.1"
"1.41987","225.516","0.9224","0.018448","42.6"
"1.43659","227.832","0.9324","0.018648","43.1"
"1.45326","230.212","0.9455","0.01891","43.6"
"1.46994","232.913","0.955","0.0191","44.1"
"1.48661","235.467","0.968","0.01936","44.6"
"1.50328","237.947","0.9788","0.019576","45.1"
"1.51991","240.268","0.991","0.01982","45.6"
"1.53663","242.749","1.0011","0.020022","46.1"
"1.55321","245.353","1.0144","0.020288","46.6"
"1.56993","247.683","1.0241","0.020482","47.1"
"1.58661","250.162","1.0362","0.020724","47.6"
"1.60319","252.828","1.047","0.02094","48.1"
"1.61995","255.084","1.0604","0.021208","48.6"
"1.63658","257.572","1.0707","0.021414","49.1"
"1.65325","260.291","1.0839","0.021678","49.6"
"1.66993","262.608","1.0936","0.021872","50.1"
"1.68656","265.09","1.1064","0.022128","50.6"
"1.70328","267.624","1.1164","0.022328","51.1"
"1.71995","269.929","1.1294","0.022588","51.6"
"1.73658","272.384","1.1397","0.022794","52.1"
"1.7533","274.88","1.1518","0.023036","52.6"
"1.76992","277.33","1.1625","0.02325","53.1"
"1.7866","279.576","1.1723","0.023446","53.6"
"1.80327","282.129","1.1854","0.023708","54.1"
"1.8199","284.59","1.1959","0.023918","54.6"
"1.83662","287.093","1.209","0.02418","55.1"
"1.85329","289.455","1.2188","0.024376","55.6"
"1.86987","291.618","1.2321","0.024642","56.1"
"1.88664","294.294","1.2428","0.024856","56.6"
"1.90322","296.347","1.2553","0.025106","57.1"
"1.91994","299.113","1.2651","0.025302","57.6"
"1.93661","301.502","1.2791","0.025582","58.1"
"1.95324","303.968","1.2883","0.025766","58.6"
"1.96996","306.188","1.3017","0.026034","59.1"
"1.98654","308.724","1.3125","0.02625","59.6"
"2.00326","311.024","1.3245","0.02649","60.1"
"2.01994","313.241","1.3353","0.026706","60.6"
"2.03656","315.614","1.348","0.02696","61.1"
"2.05328","318.145","1.3577","0.027154","61.6"
"2.06996","320.538","1.3711","0.027422","62.1"
"2.08654","322.559","1.3806","0.027612","62.6"
"2.1033","325.232","1.3941","0.027882","63.1"
"2.11993","327.311","1.4045","0.02809","63.6"
"2.13656","329.406","1.4179","0.028358","64.1"
"2.15332","331.906","1.4268","0.028536","64.6"
"2.1699","334.395","1.4405","0.02881","65.1"
"2.18658","336.677","1.4516","0.029032","65.6"
"2.2033","338.933","1.4646","0.029292","66.1"
"2.21988","341.343","1.4741","0.029482","66.6"
"2.23665","343.691","1.487","0.02974","67.1"
"2.25323","345.98","1.4977","0.029954","67.6"
"2.26995","348.149","1.51","0.0302","68.1"
"2.28662","350.484","1.5203","0.030406","68.6"
"2.30325","352.664","1.5321","0.030642","69.1"
"2.31997","354.98","1.5428","0.030856","69.6"
"2.33659","357.262","1.5562","0.031124","70.1"
"2.35322","359.506","1.565","0.0313","70.6"
"2.36994","361.861","1.5784","0.031568","71.1"
"2.38662","363.743","1.5891","0.031782","71.6"
"2.40324","366.309","1.602","0.03204","72.1"
"2.42001","368.578","1.6125","0.03225","72.6"
"2.43654","370.807","1.6243","0.032486","73.1"
"2.45326","372.944","1.635","0.0327","73.6"
"2.46989","375.101","1.6477","0.032954","74.1"
"2.48656","377.325","1.6589","0.033178","74.6"
"2.50329","379.394","1.672","0.03344","75.1"
"2.51991","381.773","1.6818","0.033636","75.6"
"2.53663","383.958","1.6947","0.033894","76.1"
"2.55326","385.947","1.7051","0.034102","76.6"
"2.56989","388.426","1.7182","0.034364","77.1"
"2.58665","390.439","1.7282","0.034564","77.6"
"2.60323","392.502","1.7413","0.034826","78.1"
"2.61991","394.79","1.7503","0.035006","78.6"
"2.63658","396.903","1.7638","0.035276","79.1"
"2.65325","399.192","1.7735","0.03547","79.6"
"2.66993","401.527","1.7871","0.035742","80.1"
"2.6866","403.631","1.7972","0.035944","80.6"
"2.70323","405.716","1.81","0.0362","81.1"
"2.71995","407.857","1.82","0.0364","81.6"
"2.73658","409.942","1.8333","0.036666","82.1"
"2.75325","412.164","1.8437","0.036874","82.6"
"2.77002","414.155","1.8562","0.037124","83.1"
"2.78655","416.393","1.8663","0.037326","83.6"
"2.80332","418.54","1.88","0.0376","84.1"
"2.8199","420.231","1.8914","0.037828","84.6"
"2.83657","422.563","1.9033","0.038066","85.1"
"2.85329","424.711","1.9132","0.038264","85.6"
"2.86992","426.906","1.926","0.03852","86.1"
"2.88659","429.121","1.936","0.03872","86.6"
"2.90327","431.159","1.9464","0.038928","87.1"
"2.91989","433.13","1.9602","0.039204","87.6"
"2.93661","435.067","1.9708","0.039416","88.1"
"2.95329","437.059","1.9831","0.039662","88.6"
"2.96991","439.372","1.9927","0.039854","89.1"
"2.98664","441.168","2.5","0.05","89.6"
"3.00322","443.146","2.5129","0.050258","90.1"
"3.01989","445.189","2.5304","0.050608","90.6"
"3.03661","447.253","2.5515","0.05103","91.1"
"3.05319","449.17","2.5661","0.051322","91.6"
"3.07","451.278","2.5829","0.051658","92.1"
"3.08658","453.241","2.6054","0.052108","92.6"
"3.10321","455.378","2.6185","0.05237","93.1"
"3.11998","457.023","2.6354","0.052708","93.6"
"3.13656","459.205","2.649","0.05298","94.1"
"3.15328","461.206","2.6651","0.053302","94.6"
"3.16991","463.261","2.6785","0.05357","95.1"
"3.18658","465.218","2.6981","0.053962","95.6"
"3.20325","466.963","2.7152","0.054304","96.1"
"3.21993","469.333","2.7332","0.054664","96.6"
"3.2366","471.26","2.7515","0.05503","97.1"
"3.25327","472.998","2.7589","0.055178","97.6"
"3.26985","475.105","2.7774","0.055548","98.1"
"3.28662","477.028","2.7905","0.05581","98.6"
"3.3033","478.622","2.8041","0.056082","99.1"
"3.31988","480.725","2.8293","0.056586","99.6"
"3.33664","482.671","2.8368","0.056736","100.1"
"3.35322","484.694","2.8541","0.057082","100.6"
"3.3699","486.485","2.8722","0.057444","101.1"
"3.38662","488.209","2.8863","0.057726","101.6"
"3.4032","490.229","2.9045","0.05809","102.1"
"3.41996","492.023","2.9196","0.058392","102.6"
"3.43659","493.906","2.9367","0.058734","103.1"
"3.45326","495.947","2.9543","0.059086","103.6"
"3.46994","497.995","2.9628","0.059256","104.1"
"3.48657","499.779","2.9812","0.059624","104.6"
"3.50329","501.761","3.001","0.06002","105.1"
"3.51996","503.424","3.0174","0.060348","105.6"
"3.53659","505.14","3.0303","0.060606","106.1"
"3.55326","507.111","3.0446","0.060892","106.6"
"3.56993","508.857","3.0548","0.061096","107.1"
"3.58651","510.673","3.0724","0.061448","107.6"
"3.60333","512.463","3.0846","0.061692","108.1"
"3.61991","514.472","3.1012","0.062024","108.6"
"3.63658","516.289","3.1129","0.062258","109.1"
"3.65326","517.767","3.126","0.06252","109.6"
"3.66988","519.441","3.1366","0.062732","110.1"
"3.6866","521.33","3.1547","0.063094","110.6"
"3.70323","523.255","3.167","0.06334","111.1"
"3.71995","524.779","3.1821","0.063642","111.6"
"3.73658","526.474","3.1926","0.063852","112.1"
"3.75325","528.545","3.2062","0.064124","112.6"
"3.76992","530.368","3.2211","0.064422","113.1"
"3.7866","532.004","3.2338","0.064676","113.6"
"3.80323","533.654","3.2475","0.06495","114.1"
"3.81995","535.54","3.2623","0.065246","114.6"
"3.83657","537.036","3.2725","0.06545","115.1"
"3.85325","538.779","3.2899","0.065798","115.6"
"3.86997","540.229","3.3024","0.066048","116.1"
"3.88659","542.136","3.3153","0.066306","116.6"
"3.90327","543.889","3.3253","0.066506","117.1"
"3.91994","545.571","3.3414","0.066828","117.6"
"3.93652","547.215","3.3543","0.067086","118.1"
"3.95329","548.875","3.3663","0.067326","118.6"
"3.96987","550.413","3.3817","0.067634","119.1"
"3.98664","552.092","3.398","0.06796","119.6"
"4.00326","553.825","3.4114","0.068228","120.1"
"4.01989","555.431","3.4246","0.068492","120.6"
"4.03661","557.196","3.438","0.06876","121.1"
"4.05324","558.539","3.4477","0.068954","121.6"
"4.06991","560.289","3.4627","0.069254","122.1"
"4.08658","561.95","3.474","0.06948","122.6"
"4.10326","563.392","3.4902","0.069804","123.1"
"4.11989","565.199","3.5046","0.070092","123.6"
"4.13665","566.551","3.5172","0.070344","124.1"
"4.15323","568.3","3.5304","0.070608","124.6"
"4.16995","569.793","3.5425","0.07085","125.1"
"4.18658","571.552","3.5579","0.071158","125.6"
"4.20325","573.116","3.5726","0.071452","126.1"
"4.21997","574.557","3.5803","0.071606","126.6"
"4.23655","576.28","3.5962","0.071924","127.1"
"4.25327","577.809","3.6097","0.072194","127.6"
"4.26995","579.378","3.6244","0.072488","128.1"
"4.28658","580.774","3.6349","0.072698","128.6"
"4.3033","582.444","3.6506","0.073012","129.1"
"4.31988","583.889","3.6643","0.073286","129.6"
"4.3366","585.513","3.6809","0.073618","130.1"
"4.35327","586.991","3.6902","0.073804","130.6"
"4.3699","588.367","3.7062","0.074124","131.1"
"4.38657","589.868","3.7174","0.074348","131.6"
"4.40324","591.313","3.7363","0.074726","132.1"
"4.41992","592.967","3.7488","0.074976","132.6"
"4.43659","594.527","3.7608","0.075216","133.1"
"4.45327","595.848","3.7727","0.075454","133.6"
"4.46989","597.35","3.7869","0.075738","134.1"
"4.48666","598.615","3.8015","0.07603","134.6"
"4.50319","600.322","3.8155","0.07631","135.1"
"4.52001","601.566","3.8286","0.076572","135.6"
"4.53659","603.261","3.8372","0.076744","136.1"
"4.55326","604.605","3.8536","0.077072","136.6"
"4.56998","605.901","3.8693","0.077386","137.1"
"4.58656","607.352","3.8822","0.077644","137.6"
"4.60324","608.962","3.8987","0.077974","138.1"
"4.61996","610.336","3.9068","0.078136","138.6"
"4.63658","611.572","3.922","0.07844","139.1"
"4.6533","612.965","3.9367","0.078734","139.6"
"4.66993","614.463","3.9499","0.078998","140.1"
"4.6866","615.714","3.9639","0.079278","140.6"
"4.70328","617.02","3.978","0.07956","141.1"
"4.7199","618.396","3.9941","0.079882","141.6"
"4.73658","619.905","4.0083","0.080166","142.1"
"4.7533","621.245","4.0162","0.080324","142.6"
"4.76988","622.639","4.034","0.08068","143.1"
"4.78665","623.729","4.0461","0.080922","143.6"
"4.80327","625.159","4.0666","0.081332","144.1"
"4.8199","626.423","4.0704","0.081408","144.6"
"4.83667","627.945","4.0898","0.081796","145.1"
"4.8532","629.341","4.1028","0.082056","145.6"
"4.86992","630.395","4.1179","0.08233","146.1"
"4.88655","631.791","4.1263","0.082526","146.6"
"4.90327","633.032","4.1421","0.082842","147.1"
"4.91994","634.331","4.156","0.08312","147.6"
"4.93662","635.671","4.1712","0.083424","148.1"
"4.95324","636.833","4.182","0.08364","148.6"
"4.96996","638.352","4.1958","0.083916","149.1"
"4.98654","639.613","4.207","0.08414","149.6"
"5.00331","640.877","4.2268","0.084536","150.1"
"5.01994","642.033","4.2344","0.084688","150.6"
"5.03656","643.437","4.2489","0.084978","151.1"
"5.05328","644.626","4.2618","0.085236","151.6"
"5.06986","645.831","4.2769","0.085538","152.1"
"5.08659","646.843","4.2893","0.085786","152.6"
"5.10331","648.116","4.3022","0.086044","153.1"
"5.11989","649.464","4.3128","0.086256","153.6"
"5.13661","650.759","4.3262","0.086524","154.1"
"5.15323","651.881","4.339","0.08678","154.6"
"5.16991","653.11","4.3548","0.087096","155.1"
"5.18663","654.3","4.3657","0.087314","155.6"
"5.20321","655.285","4.3831","0.087662","156.1"
"5.21997","656.631","4.3941","0.087882","156.6"
"5.2366","657.755","4.4054","0.088108","157.1"
"5.25323","658.684","4.42","0.0884","157.6"
"5.26995","659.75","4.4328","0.088656","158.1"
"5.28662","661.049","4.4468","0.088936","158.6"
"5.3032","662.39","4.4584","0.089168","159.1"
"5.31997","663.44","4.477","0.08954","159.6"
"5.33655","664.68","4.4885","0.08977","160.1"
"5.35327","665.776","4.5021","0.090042","160.6"
"5.36994","666.787","4.5167","0.090334","161.1"
"5.38657","668.134","4.5285","0.09057","161.6"
"5.40329","669.16","4.5432","0.090864","162.1"
"5.41987","670.373","4.5557","0.091114","162.6"
"5.43659","671.497","4.5678","0.091356","163.1"
"5.45327","672.513","4.5796","0.091592","163.6"
"5.46989","673.431","4.5914","0.091828","164.1"
"5.48661","674.497","4.6091","0.092182","164.6"
"5.50329","675.763","4.622","0.09244","165.1"
"5.51987","676.642","4.6335","0.09267","165.6"
"5.53663","677.812","4.6504","0.093008","166.1"
"5.55321","678.878","4.6594","0.093188","166.6"
"5.56994","680.021","4.6812","0.093624","167.1"
"5.58666","680.926","4.6869","0.093738","167.6"
"5.60324","682.004","4.7026","0.094052","168.1"
"5.61991","682.955","4.7194","0.094388","168.6"
"5.63658","684.012","4.7301","0.094602","169.1"
"5.65321","684.928","4.7463","0.094926","169.6"
"5.66998","686.162","4.7576","0.095152","170.1"
"5.68656","686.919","4.7727","0.095454","170.6"
"5.70328","687.854","4.7865","0.09573","171.1"
"5.71995","688.941","4.7985","0.09597","171.6"
"5.73658","690.133","4.8099","0.096198","172.1"
"5.7533","691.125","4.8223","0.096446","172.6"
"5.76988","691.926","4.8341","0.096682","173.1"
"5.78655","693.042","4.8501","0.097002","173.6"
"5.80327","694.126","4.8606","0.097212","174.1"
"5.81995","694.875","4.8751","0.097502","174.6"
"5.83657","695.758","4.8842","0.097684","175.1"
"5.85334","697.01","4.9027","0.098054","175.6"
"5.86987","697.773","4.9109","0.098218","176.1"
"5.88664","698.96","4.9268","0.098536","176.6"
"5.90322","699.655","4.9342","0.098684","177.1"
"5.91994","700.889","4.9509","0.099018","177.6"
"5.93662","701.713","4.9633","0.099266","178.1"
"5.95324","702.604","4.9761","0.099522","178.6"
"5.96996","703.686","4.9908","0.099816","179.1"
"5.98659","704.349","5.0036","0.100072","179.6"
"6.00322","705.126","5.0147","0.100294","180.1"
"6.01998","706.089","5.0292","0.100584","180.6"
"6.03656","707.019","5.0392","0.100784","181.1"
"6.05329","707.777","5.0519","0.101026","181.6"
"6.06991","708.794","5.0623","0.101246","182.1"
"6.08654","709.774","5.0751","0.101502","182.6"
"6.10326","710.723","5.0924","0.101848","183.1"
"6.11993","711.242","5.1018","0.102036","183.6"
"6.13656","712.33","5.1177","0.102354","184.1"
"6.15328","713.157","5.1321","0.102642","184.6"
"6.16991","714.013","5.1431","0.102862","185.1"
"6.18658","714.68","5.1561","0.103122","185.6"
"6.2033","715.68","5.1697","0.103394","186.1"
"6.21984","716.458","5.1815","0.10363","186.6"
"6.23665","717.394","5.1941","0.103882","187.1"
"6.25323","718.223","5.2077","0.104154","187.6"
"6.2699","719.143","5.2215","0.10443","188.1"
"6.28662","720.091","5.2351","0.104702","188.6"
"6.30325","720.789","5.2474","0.104948","189.1"
"6.31992","721.604","5.2593","0.105186","189.6"
"6.3366","722.475","5.2715","0.10543","190.1"
"6.35322","723.272","5.2829","0.105658","190.6"
"6.36995","724.017","5.2999","0.105998","191.1"
"6.38657","724.646","5.3106","0.106212","191.6"
"6.40325","725.564","5.3252","0.106504","192.1"
"6.41997","726.31","5.3396","0.106792","192.6"
"6.43655","727.148","5.3539","0.107078","193.1"
"6.45327","727.933","5.3629","0.107258","193.6"
"6.46994","728.919","5.3799","0.107598","194.1"
"6.48657","729.374","5.393","0.10786","194.6"
"6.50333","730.251","5.4054","0.108108","195.1"
"6.51992","730.826","5.414","0.10828","195.6"
"6.53659","731.682","5.4332","0.108664","196.1"
"6.55326","732.461","5.4414","0.108828","196.6"
"6.56989","733.121","5.4579","0.109158","197.1"
"6.58666","733.85","5.469","0.10938","197.6"
"6.60324","734.666","5.487","0.10974","198.1"
"6.61996","735.192","5.4993","0.109986","198.6"
"6.63658","735.954","5.5089","0.110178","199.1"
"6.65326","736.855","5.5215","0.11043","199.6"
"6.66993","737.428","5.5365","0.11073","200.1"
"6.68661","738.314","5.5466","0.110932","200.6"
"6.70323","738.865","5.5606","0.111212","201.1"
"6.71995","739.644","5.5753","0.111506","201.6"
"6.73658","740.268","5.5902","0.111804","202.1"
"6.75321","740.947","5.6033","0.112066","202.6"
"6.76997","741.759","5.617","0.11234","203.1"
"6.78655","742.455","5.6313","0.112626","203.6"
"6.80327","743.138","5.6477","0.112954","204.1"
"6.81995","743.887","5.6595","0.11319","204.6"
"6.83653","744.257","5.6729","0.113458","205.1"
"6.8533","745.065","5.6841","0.113682","205.6"
"6.86992","745.818","5.7007","0.114014","206.1"
"6.8866","746.345","5.7134","0.114268","206.6"
"6.90327","746.991","5.7284","0.114568","207.1"
"6.9199","747.716","5.7385","0.11477","207.6"
"6.93662","748.462","5.7524","0.115048","208.1"
"6.95324","748.852","5.7668","0.115336","208.6"
"6.96992","749.638","5.7826","0.115652","209.1"
"6.98659","750.284","5.7916","0.115832","209.6"
"7.00326","750.836","5.8119","0.116238","210.1"
"7.01989","751.326","5.8196","0.116392","210.6"
"7.03666","752.193","5.8378","0.116756","211.1"
"7.05324","752.857","5.8531","0.117062","211.6"
"7.06996","753.36","5.8672","0.117344","212.1"
"7.08659","753.937","5.8769","0.117538","212.6"
"7.10321","754.422","5.8962","0.117924","213.1"
"7.11993","755.125","5.9059","0.118118","213.6"
"7.13651","755.912","5.9236","0.118472","214.1"
"7.15328","756.331","5.9341","0.118682","214.6"
"7.16995","757.149","5.9477","0.118954","215.1"
"7.18658","757.404","5.9638","0.119276","215.6"
"7.2033","758.015","5.9778","0.119556","216.1"
"7.21993","758.671","5.9896","0.119792","216.6"
"7.23656","759.3125","6.0048","0.120096","217.1"
"7.25328","759.63","6.0144","0.120288","217.6"
"7.2699","760.342","6.0268","0.120536","218.1"
"7.28658","760.683","6.0469","0.120938","218.6"
"7.3033","761.576","6.0558","0.121116","219.1"
"7.31992","762.14","6.0755","0.12151","219.6"
"7.3366","762.663","6.0863","0.121726","220.1"
"7.35323","763.064","6.1041","0.122082","220.6"
"7.3699","763.574","6.1138","0.122276","221.1"
"7.38662","763.965","6.1321","0.122642","221.6"
"7.4032","764.648","6.1404","0.122808","222.1"
"7.41997","765.213","6.1588","0.123176","222.6"
"7.43659","765.825","6.1752","0.123504","223.1"
"7.45322","766.258","6.1889","0.123778","223.6"
"7.46994","766.865","6.2034","0.124068","224.1"
"7.48657","767.172","6.2153","0.124306","224.6"
"7.50324","767.898","6.2315","0.12463","225.1"
"7.51992","768.278","6.248","0.12496","225.6"
"7.53659","768.614","6.2602","0.125204","226.1"
"7.55326","769.23","6.2727","0.125454","226.6"
"7.56994","769.811","6.2857","0.125714","227.1"
"7.58656","770.386","6.3044","0.126088","227.6"
"7.60328","770.854","6.3158","0.126316","228.1"
"7.61991","771.285","6.3308","0.126616","228.6"
"7.63658","771.762","6.3437","0.126874","229.1"
"7.6533","772.375","6.3562","0.127124","229.6"
"7.66989","772.838","6.3719","0.127438","230.1"
"7.68665","773.392","6.3853","0.127706","230.6"
"7.70328","773.781","6.3991","0.127982","231.1"
"7.71991","774.206","6.4153","0.128306","231.6"
"7.73663","774.465","6.4282","0.128564","232.1"
"7.75321","775.046","6.4454","0.128908","232.6"
"7.76993","775.556","6.4559","0.129118","233.1"
"7.7866","776.108","6.472","0.12944","233.6"
"7.80323","776.5","6.482","0.12964","234.1"
"7.8199","776.972","6.502","0.13004","234.6"
"7.83658","777.622","6.512","0.13024","235.1"
"7.85325","777.986","6.5295","0.13059","235.6"
"7.86997","778.454","6.538","0.13076","236.1"
"7.8866","778.651","6.5557","0.131114","236.6"
"7.90327","779.197","6.569","0.13138","237.1"
"7.91994","779.583","6.5872","0.131744","237.6"
"7.93652","780.102","6.5961","0.131922","238.1"
"7.95334","780.797","6.6121","0.132242","238.6"
"7.96992","780.88","6.6307","0.132614","239.1"
"7.98659","781.471","6.6436","0.132872","239.6"
"8.00327","781.692","6.6567","0.133134","240.1"
"8.01989","782.086","6.6702","0.133404","240.6"
"8.03657","782.599","6.6851","0.133702","241.1"
"8.05324","783.07","6.6989","0.133978","241.6"
"8.06991","783.287","6.715","0.1343","242.1"
"8.08663","783.871","6.7268","0.134536","242.6"
"8.10326","784.385","6.7422","0.134844","243.1"
"8.11993","784.595","6.7585","0.13517","243.6"
"8.13661","784.878","6.7721","0.135442","244.1"
"8.15319","785.39","6.7857","0.135714","244.6"
"8.16996","785.952","6.795","0.1359","245.1"
"8.18663","786.336","6.8136","0.136272","245.6"
"8.20321","786.72","6.8297","0.136594","246.1"
"8.21998","786.993","6.8479","0.136958","246.6"
"8.23656","787.272","6.856","0.13712","247.1"
"8.25323","787.746","6.8704","0.137408","247.6"
"8.26995","788.119","6.8844","0.137688","248.1"
"8.28653","788.44","6.901","0.13802","248.6"
"8.3033","788.662","6.9106","0.138212","249.1"
"8.31988","789.254","6.927","0.138472","249.6"
"8.33665","789.683","6.9407","0.138814","250.1"
"8.35327","789.814","6.9515","0.13903","250.6"
"8.3699","790.109","6.9688","0.139376","251.1"
"8.38662","790.661","6.983","0.13966","251.6"
"8.40329","790.971","6.9994","0.139988","252.1"
"8.41987","791.462","7.0089","0.140178","252.6"
"8.43664","791.576","7.0277","0.140554","253.1"
"8.45327","792.131","7.0383","0.140766","253.6"
"8.4699","792.405","7.0556","0.141112","254.1"
"8.48662","792.823","7.0683","0.141366","254.6"
"8.5032","792.948","7.0857","0.141714","255.1"
"8.51992","793.319","7.098","0.14196","255.6"
"8.53659","793.656","7.1165","0.14233","256.1"
"8.55326","794.077","7.1287","0.142574","256.6"
"8.56998","794.277","7.1445","0.14289","257.1"
"8.58656","794.679","7.1582","0.143164","257.6"
"8.60328","794.948","7.1759","0.143518","258.1"
"8.61996","795.232","7.1869","0.143738","258.6"
"8.63659","795.515","7.1992","0.143984","259.1"
"8.65331","795.943","7.213","0.14426","259.6"
"8.66989","796.22","7.231","0.14462","260.1"
"8.68656","796.484","7.243","0.14486","260.6"
"8.70328","796.758","7.2567","0.145134","261.1"
"8.71991","796.994","7.2717","0.145434","261.6"
"8.73658","797.348","7.2872","0.145744","262.1"
"8.7533","797.774","7.3005","0.14601","262.6"
"8.76988","797.927","7.3166","0.146332","263.1"
"8.7866","798.272","7.3274","0.146548","263.6"
"8.80323","798.596","7.3433","0.146866","264.1"
"8.8199","798.931","7.3571","0.147142","264.6"
"8.83662","799.298","7.3756","0.147512","265.1"
"8.8532","799.698","7.3859","0.147718","265.6"
"8.86997","799.948","7.4039","0.148078","266.1"
"8.8866","800.256","7.4167","0.148334","266.6"
"8.90322","800.234","7.4324","0.148648","267.1"
"8.91994","800.572","7.4418","0.148836","267.6"
"8.93657","800.847","7.4607","0.149214","268.1"
"8.95325","801.073","7.4716","0.149432","268.6"
"8.96997","801.124","7.489","0.14978","269.1"
"8.98659","801.717","7.5041","0.150082","269.6"
"9.00327","801.881","7.5183","0.150366","270.1"
"9.01994","802.223","7.5315","0.15063","270.6"
"9.03657","802.501","7.5495","0.15099","271.1"
"9.05324","802.685","7.562","0.15124","271.6"
"9.06991","803.073","7.5765","0.15153","272.1"
"9.08659","803.094","7.5862","0.151724","272.6"
"9.10331","803.269","7.6054","0.152108","273.1"
"9.11989","803.875","7.6197","0.152394","273.6"
"9.13666","804.155","7.6316","0.152632","274.1"
"9.15324","804.325","7.649","0.15298","274.6"
"9.16991","804.568","7.6655","0.15331","275.1"
"9.18663","804.693","7.6767","0.153534","275.6"
"9.20321","805.039","7.6893","0.153786","276.1"
"9.21993","805.132","7.7058","0.154116","276.6"
"9.2366","805.623","7.7233","0.154466","277.1"
"9.25323","805.881","7.733","0.15466","277.6"
"9.26995","805.893","7.7492","0.154984","278.1"
"9.28663","806.212","7.7629","0.155258","278.6"
"9.30325","806.463","7.7764","0.155528","279.1"
"9.31997","806.589","7.7897","0.155794","279.6"
"9.33655","806.724","7.8047","0.156094","280.1"
"9.35327","806.99","7.8217","0.156434","280.6"
"9.36995","806.954","7.8354","0.156708","281.1"
"9.38657","807.228","7.8516","0.157032","281.6"
"9.40329","807.367","7.8637","0.157274","282.1"
"9.41992","807.654","7.881","0.15762","282.6"
"9.43655","807.866","7.8954","0.157908","283.1"
"9.45332","808.041","7.9114","0.158228","283.6"
"9.4699","808.274","7.9229","0.158458","284.1"
"9.48662","808.374","7.9391","0.158782","284.6"
"9.50324","808.95","7.9532","0.159064","285.1"
"9.51992","808.911","7.9741","0.159482","285.6"
"9.53659","809.238","7.9823","0.159646","286.1"
"9.55326","809.363","7.9971","0.159942","286.6"
"9.56994","809.487","8.0114","0.160228","287.1"
"9.58661","809.573","8.0289","0.160578","287.6"
"9.60319","809.935","8.0402","0.160804","288.1"
"9.61991","810.18","8.0556","0.161112","288.6"
"9.63663","810.345","8.0741","0.161482","289.1"
"9.65321","810.287","8.0876","0.161752","289.6"
"9.67003","810.545","8.0996","0.161992","290.1"
"9.68656","810.83","8.118","0.16236","290.6"
"9.70328","810.736","8.1299","0.162598","291.1"
"9.71995","811.08","8.1437","0.162874","291.6"
"9.73654","811.344","8.1596","0.163192","292.1"
"9.75326","811.469","8.1777","0.163554","292.6"
"9.76993","811.914","8.1919","0.163838","293.1"
"9.7866","812.098","8.2078","0.164156","293.6"
"9.80328","812.155","8.2198","0.164396","294.1"
"9.8199","812.426","8.2383","0.164766","294.6"
"9.83662","812.215","8.2524","0.165048","295.1"
"9.85325","812.457","8.2665","0.16533","295.6"
"9.86988","812.534","8.2809","0.165618","296.1"
"9.8866","812.543","8.2991","0.165982","296.6"
"9.90327","812.725","8.3133","0.166266","297.1"
"9.9199","812.946","8.3276","0.166552","297.6"
"9.93667","813.231","8.3445","0.16689","298.1"
"9.95325","813.144","8.3605","0.16721","298.6"
"9.96992","813.528","8.3759","0.167518","299.1"
"9.98659","813.514","8.3917","0.167834","299.6"
"10.0032","813.764","8.4088","0.168176","300.1"
"10.02","813.787","8.4176","0.168352","300.6"
"10.0366","813.756","8.4354","0.168708","301.1"
"10.0533","814.107","8.4554","0.169108","301.6"
"10.0699","814.197","8.4709","0.169418","302.1"
"10.0866","814.338","8.4886","0.169772","302.6"
"10.1033","814.423","8.5041","0.170082","303.1"
"10.1199","814.533","8.5192","0.170384","303.6"
"10.1366","814.58","8.5394","0.170788","304.1"
"10.1533","814.89","8.5495","0.17099","304.6"
"10.1699","815.107","8.5728","0.171456","305.1"
"10.1866","815.027","8.593","0.17186","305.6"
"10.2033","815.078","8.6022","0.172044","306.1"
"10.2199","815.374","8.6195","0.17239","306.6"
"10.2366","815.533","8.6375","0.17275","307.1"
"10.2532","815.357","8.6528","0.173056","307.6"
"10.2699","815.869","8.6699","0.173398","308.1"
"10.2866","815.705","8.6841","0.173682","308.6"
"10.3032","815.881","8.7063","0.174126","309.1"
"10.32","815.977","8.7218","0.174436","309.6"
"10.3366","815.836","8.739","0.17478","310.1"
"10.3532","816.063","8.7528","0.175056","310.6"
"10.37","816.321","8.7739","0.175478","311.1"
"10.3866","816.313","8.7939","0.175878","311.6"
"10.4032","816.499","8.8137","0.176274","312.1"
"10.4199","816.533","8.8274","0.176548","312.6"
"10.4365","816.491","8.8405","0.17681","313.1"
"10.4532","816.816","8.8606","0.177212","313.6"
"10.47","816.627","8.879","0.17758","314.1"
"10.4866","816.747","8.8942","0.177884","314.6"
"10.5033","816.841","8.917","0.17834","315.1"
"10.5199","817.046","8.937","0.17874","315.6"
"10.5365","817.096","8.9501","0.179002","316.1"
"10.5533","816.961","8.9749","0.179498","316.6"
"10.5699","817.244","8.9915","0.17983","317.1"
"10.5867","817.33","9.0033","0.180066","317.6"
"10.6032","817.364","9.0219","0.180438","318.1"
"10.6199","817.596","9.04","0.1808","318.6"
"10.6366","817.44","9.063","0.18126","319.1"
"10.6532","817.461","9.077","0.18154","319.6"
"10.6699","817.47","9.098","0.18196","320.1"
"10.6866","817.628","9.1046","0.182092","320.6"
"10.7032","817.765","9.1331","0.182662","321.1"
"10.72","817.818","9.1523","0.183046","321.6"
"10.7366","817.709","9.1661","0.183322","322.1"
"10.7533","817.759","9.1843","0.183686","322.6"
"10.7699","817.93","9.1936","0.183872","323.1"
"10.7866","818.015","9.2157","0.184314","323.6"
"10.8032","817.862","9.2306","0.184612","324.1"
"10.82","818.203","9.2467","0.184934","324.6"
"10.8365","818.171","9.273","0.18546","325.1"
"10.8533","818.113","9.282","0.18564","325.6"
"10.8699","818.055","9.3048","0.186096","326.1"
"10.8866","818.217","9.3104","0.186208","326.6"
"10.9033","818.1","9.3357","0.186714","327.1"
"10.9199","818.212","9.3488","0.186976","327.6"
"10.9366","818.339","9.3709","0.187418","328.1"
"10.9532","818.382","9.3769","0.187538","328.6"
"10.9699","818.286","9.3967","0.187934","329.1"
"10.9866","818.606","9.4129","0.188258","329.6"
"11.0033","818.551","9.4292","0.188584","330.1"
"11.0199","818.607","9.4461","0.188922","330.6"
"11.0366","818.625","9.4612","0.189224","331.1"
"11.0532","818.712","9.4762","0.189524","331.6"
"11.07","818.546","9.4987","0.189974","332.1"
"11.0866","818.858","9.5095","0.19019","332.6"
"11.1032","818.749","9.5256","0.190512","333.1"
"11.12","818.645","9.5381","0.190762","333.6"
"11.1366","818.732","9.5602","0.191204","334.1"
"11.1532","818.569","9.58","0.1916","334.6"
"11.17","818.729","9.5987","0.191974","335.1"
"11.1865","818.671","9.6145","0.19229","335.6"
"11.2033","818.99","9.6277","0.192554","336.1"
"11.2199","818.859","9.6404","0.192808","336.6"
"11.2366","818.796","9.6593","0.193186","337.1"
"11.2533","818.608","9.6728","0.193456","337.6"
"11.2699","818.813","9.6885","0.19377","338.1"
"11.2866","818.981","9.7033","0.194066","338.6"
"11.3033","818.819","9.7211","0.194422","339.1"
"11.3199","818.765","9.7379","0.194758","339.6"
"11.3366","818.887","9.7527","0.195054","340.1"
"11.3533","818.788","9.7705","0.19541","340.6"
"11.3699","818.919","9.7841","0.195682","341.1"
"11.3867","818.9","9.7987","0.195974","341.6"
"11.4032","818.584","9.8195","0.196254","342.1"
"11.4199","818.723","9.8322","0.196644","342.6"
"11.4366","818.913","9.8496","0.196992","343.1"
"11.4532","818.963","9.8646","0.197292","343.6"
"11.4699","819.045","9.8769","0.197538","344.1"
"11.4866","818.894","9.8957","0.197914","344.6"
"11.5033","818.691","9.9138","0.198276","345.1"
"11.52","818.768","9.9303","0.198606","345.6"
"11.5365","818.788","9.9471","0.198942","346.1"
"11.5533","818.771","9.9654","0.199308","346.6"
"11.5699","818.567","9.9817","0.199634","347.1"
"11.5866","818.754","9.9967","0.199934","347.6"
"11.6033","818.7","10.0064","0.200128","348.1"
"11.6199","818.707","10.0294","0.200588","348.6"
"11.6366","818.672","10.0464","0.200928","349.1"
"11.6533","818.698","10.0614","0.201228","349.6"
"11.6699","818.53","10.0758","0.201516","350.1"
"11.6866","818.632","10.0931","0.201862","350.6"
"11.7033","818.474","10.1097","0.202194","351.1"
"11.7199","818.444","10.1269","0.202538","351.6"
"11.7366","818.503","10.1423","0.202846","352.1"
"11.7532","818.567","10.1584","0.203168","352.6"
"11.77","818.312","10.1761","0.203522","353.1"
"11.7866","818.308","10.1935","0.20387","353.6"
"11.8032","818.276","10.2075","0.20415","354.1"
"11.82","818.298","10.2245","0.20449","354.6"
"11.8366","818.151","10.2408","0.204816","355.1"
"11.8533","818.129","10.2563","0.205126","355.6"
"11.87","818.251","10.2749","0.205498","356.1"
"11.8866","818.106","10.2922","0.205844","356.6"
"11.9032","818.104","10.3053","0.206106","357.1"
"11.9199","817.901","10.3246","0.206492","357.6"
"11.9366","818.118","10.3409","0.206818","358.1"
"11.9533","818.088","10.3543","0.207086","358.6"
"11.9699","818.003","10.3722","0.207444","359.1"
"11.9865","817.808","10.3916","0.207832","359.6"
"12.0033","817.976","10.4039","0.208078","360.1"
"12.0198","817.296","10.4239","0.208478","360.6"
"12.0366","817.727","10.4402","0.208804","361.1"
"12.0533","817.688","10.4574","0.209148","361.6"
"12.0699","817.543","10.4732","0.209464","362.1"
"12.0867","817.304","10.4927","0.209854","362.6"
"12.1032","817.343","10.5066","0.210132","363.1"
"12.1199","817.495","10.5259","0.210518","363.6"
"12.1366","817.356","10.5383","0.210766","364.1"
"12.1533","816.987","10.5586","0.211172","364.6"
"12.1699","816.906","10.5738","0.211476","365.1"
"12.1866","816.851","10.5916","0.211832","365.6"
"12.2032","816.835","10.6079","0.212158","366.1"
"12.2199","816.999","10.6282","0.212564","366.6"
"12.2366","817.057","10.6429","0.212858","367.1"
"12.2532","816.858","10.6602","0.213204","367.6"
"12.27","816.664","10.6772","0.213544","368.1"
"12.2865","816.345","10.7001","0.214002","368.6"
"12.3033","816.481","10.7101","0.214202","369.1"
"12.3199","816.374","10.7274","0.214548","369.6"
"12.3366","816.266","10.7434","0.214868","370.1"
"12.3533","816.251","10.765","0.2153","370.6"
"12.3699","816.35","10.778","0.21556","371.1"
"12.3866","816.071","10.7963","0.215926","371.6"
"12.4033","816.109","10.8139","0.216278","372.1"
"12.4199","815.843","10.8366","0.216732","372.6"
"12.4366","815.586","10.8475","0.21695","373.1"
"12.4533","815.709","10.8697","0.217394","373.6"
"12.4699","815.583","10.8847","0.217694","374.1"
"12.4866","815.409","10.9035","0.21807","374.6"
"12.5032","815.366","10.9208","0.218416","375.1"
"12.5199","815.106","10.9408","0.218816","375.6"
"12.5366","815.275","10.9525","0.21905","376.1"
"12.5532","814.93","10.9759","0.219446","376.6"
"12.57","814.84","10.9977","0.219954","377.1"
"12.5866","814.796","11.0083","0.220166","377.6"
"12.6032","814.772","11.0289","0.220578","378.1"
"12.62","814.474","11.0442","0.220884","378.6"
"12.6365","814.28","11.0629","0.221258","379.1"
"12.6533","814.328","11.0865","0.221676","379.6"
"12.6699","814.112","11.098","0.22196","380.1"
"12.6866","814.293","11.117","0.22234","380.6"
"12.7033","814.084","11.1326","0.222652","381.1"
"12.7199","813.731","11.1478","0.222956","381.6"
"12.7366","813.653","11.1748","0.223496","382.1"
"12.7533","813.769","11.1817","0.223634","382.6"
"12.7699","813.228","11.2045","0.22409","383.1"
"12.7866","813.507","11.223","0.22446","383.6"
"12.8032","813.329","11.2476","0.224952","384.1"
"12.8199","813.076","11.2632","0.225264","384.6"
"12.8367","812.874","11.2814","0.225628","385.1"
"12.8533","812.716","11.2935","0.22587","385.6"
"12.8699","812.523","11.3194","0.226388","386.1"
"12.8866","812.396","11.3365","0.22673","386.6"
"12.9032","812.207","11.3564","0.227128","387.1"
"12.9199","812.264","11.3712","0.227424","387.6"
"12.9366","811.938","11.3915","0.22783","388.1"
"12.9532","811.85","11.4052","0.228104","388.6"
"12.9699","811.752","11.4295","0.22859","389.1"
"12.9866","811.427","11.4456","0.228912","389.6"
"13.0033","811.511","11.4687","0.229374","390.1"
"13.0199","811.254","11.4842","0.229684","390.6"
"13.0365","811.147","11.5043","0.230086","391.1"
"13.0532","810.79","11.5219","0.230438","391.6"
"13.07","810.887","11.5424","0.230848","392.1"
"13.0865","810.642","11.5611","0.231222","392.6"
"13.1034","810.339","11.5816","0.231632","393.1"
"13.1199","810.305","11.597","0.23194","393.6"
"13.1366","810.326","11.6186","0.232372","394.1"
"13.1532","810.018","11.6359","0.232718","394.6"
"13.1699","809.668","11.655","0.2331","395.1"
"13.1866","809.529","11.681","0.23362","395.6"
"13.2033","809.353","11.6995","0.23399","396.1"
"13.2199","809.39","11.7131","0.234262","396.6"
"13.2366","808.821","11.7392","0.234784","397.1"
"13.2532","808.819","11.7509","0.235018","397.6"
"13.27","808.597","11.7777","0.235554","398.1"
"13.2866","808.096","11.8002","0.236004","398.6"
"13.3033","808.293","11.8194","0.236388","399.1"
"13.3199","807.991","11.8359","0.236718","399.6"
"13.3366","807.738","11.8549","0.237098","400.1"
"13.3532","807.434","11.8783","0.237566","400.6"
"13.3699","807.302","11.9015","0.23803","401.1"
"13.3866","807.046","11.9139","0.238278","401.6"
"13.4032","806.925","11.9373","0.238746","402.1"
"13.4199","806.579","11.9609","0.239218","402.6"
"13.4366","806.25","11.98","0.2396","403.1"
"13.4533","806.092","11.9966","0.239932","403.6"
"13.4699","805.732","12.0184","0.240368","404.1"
"13.4866","805.679","12.0396","0.240792","404.6"
"13.5032","805.541","12.0608","0.241216","405.1"
"13.5199","805.064","12.0811","0.241622","405.6"
"13.5366","805.029","12.1015","0.24203","406.1"
"13.5533","804.65","12.1224","0.242448","406.6"
"13.5699","804.312","12.1413","0.242826","407.1"
"13.5866","804.058","12.1591","0.243182","407.6"
"13.6032","803.85","12.1776","0.243552","408.1"
"13.6199","803.539","12.1988","0.243976","408.6"
"13.6366","803.075","12.2201","0.244402","409.1"
"13.6532","802.761","12.244","0.24488","409.6"
"13.6699","802.543","12.2734","0.24537","410.1"
"13.6866","802.319","12.2987","0.245974","410.6"
"13.7032","802.032","12.3099","0.246198","411.1"
"13.72","801.27","12.3369","0.246738","411.6"
"13.7365","801.261","12.3543","0.247086","412.1"
"13.7533","801.038","12.3767","0.247534","412.6"
"13.7699","800.588","12.397","0.24794","413.1"
"13.7866","800.162","12.4237","0.248474","413.6"
"13.8033","799.775","12.4402","0.248804","414.1"
"13.8199","799.441","12.4651","0.249302","414.6"
"13.8366","798.956","12.4821","0.249642","415.1"
"13.8533","798.574","12.51","0.2502","415.6"
"13.8699","798.309","12.5267","0.250534","416.1"
"13.8866","797.722","12.5492","0.250984","416.6"
"13.9033","797.099","12.5744","0.251488","417.1"
"13.9199","796.465","12.6027","0.252054","417.6"
"13.9366","795.961","12.623","0.25246","418.1"
"13.9532","795.61","12.6469","0.252938","418.6"
"13.9699","794.792","12.6676","0.253352","419.1"
"13.9866","794.124","12.7005","0.25401","419.6"
"14.0032","793.575","12.7235","0.25447","420.1"
"14.02","792.813","12.7514","0.255028","420.6"
"14.0366","792.087","12.775","0.2555","421.1"
"14.0532","791.268","12.8056","0.256112","421.6"
"14.07","790.11","12.8365","0.25673","422.1"
"14.0865","789.288","12.8693","0.257386","422.6"
"14.1033","788.023","12.897","0.25794","423.1"
"14.1199","786.912","12.9372","0.258744","423.6"
"14.1366","785.281","12.9687","0.259374","424.1"
"14.1533","783.5","13.0154","0.260308","424.6"
"14.1699","781.581","13.05","0.261","425.1"
"14.1866","779.484","13.1019","0.262038","425.6"
"14.2033","776.776","13.1484","0.262968","426.1"
"14.2199","773.743","13.2135","0.26427","426.6"
"14.2366","770.103","13.2678","0.265356","427.1"
"14.2533","766.107","13.3525","0.26705","427.6"
"14.2699","761.012","13.4224","0.268448","428.1"
"14.2867","755.693","13.522","0.27044","428.6"
"14.3033","750.178","13.6124","0.272248","429.1"
"14.3199","744.332","13.717","0.27434","429.6"
"14.3366","739.252","13.8053","0.276106","430.1"
"14.3532","734.134","13.9043","0.278086","430.6"
"14.37","729.857","13.9855","0.27971","431.1"
"14.3866","725.778","14.0753","0.281506","431.6"
"14.4033","722.475","14.1455","0.28291","432.1"
"14.4199","719.019","14.2308","0.284616","432.6"
"14.4366","716.061","14.2945","0.28589","433.1"
"14.4533","713.526","14.3679","0.287358","433.6"
"14.4699","711.231","14.4212","0.288424","434.1"
"14.4865","709.498","14.4945","0.28989","434.6"
"14.5033","707.354","14.5448","0.290896","435.1"
"14.5199","705.757","14.6092","0.292184","435.6"
"14.5365","704.084","14.6542","0.293084","436.1"
"14.5533","702.874","14.7134","0.294268","436.6"
"14.5699","701.676","14.7591","0.295182","437.1"
"14.5866","700.681","14.8148","0.296296","437.6"
"14.6033","699.361","14.8584","0.297168","438.1"
"14.6199","698.781","14.9098","0.298196","438.6"
"14.6366","697.925","14.9465","0.29893","439.1"
"14.6532","697.369","14.9981","0.299962","439.6"
"14.6699","696.558","15.0376","0.300752","440.1"
"14.6866","696.364","15.0829","0.301658","440.6"
"14.7032","695.747","15.1171","0.302342","441.1"
"14.72","695.317","15.168","0.30336","441.6"
"14.7366","694.995","15.2035","0.30407","442.1"
"14.7532","694.6","15.2495","0.30499","442.6"
"14.7699","694.237","15.2833","0.305666","443.1"
"14.7866","693.797","15.3156","0.306312","443.6"
"14.8032","693.468","15.3611","0.307222","444.1"
"14.82","693.209","15.3964","0.307928","444.6"
"14.8365","692.904","15.4357","0.308714","445.1"
"14.8533","692.917","15.4695","0.30939","445.6"
"14.8699","692.601","15.5113","0.310226","446.1"
"14.8866","692.466","15.545","0.3109","446.6"
"14.9033","692.442","15.5853","0.311706","447.1"
"14.9199","692.218","15.6159","0.312318","447.6"
"14.9366","692.217","15.6584","0.313168","448.1"
"14.9533","692.111","15.6922","0.313844","448.6"
"14.9699","691.902","15.7295","0.31459","449.1"
"14.9866","691.976","15.7585","0.31517","449.6"
"15.0032","691.613","15.7961","0.315922","450.1"
"15.0199","691.568","15.834","0.31668","450.6"
"15.0366","691.618","15.8739","0.317478","451.1"
"15.0532","691.746","15.9007","0.318014","451.6"
"15.0699","691.476","15.9363","0.318726","452.1"
"15.0866","691.61","15.9686","0.319372","452.6"
"15.1032","691.64","16.0116","0.320232","453.1"
"15.1199","691.317","16.0378","0.320756","453.6"
"15.1366","691.249","16.0767","0.321534","454.1"
"15.1532","691.232","16.111","0.32222","454.6"
"15.17","691.123","16.1494","0.322988","455.1"
"15.1865","691.036","16.1828","0.323656","455.6"
"15.2033","691.187","16.218","0.32436","456.1"
"15.2199","690.861","16.2474","0.324948","456.6"
"15.2366","691.02","16.2879","0.325758","457.1"
"15.2533","690.961","16.3191","0.326382","457.6"
"15.2699","690.968","16.3603","0.327206","458.1"
"15.2866","690.894","16.3901","0.327802","458.6"
"15.3033","690.86","16.4293","0.328586","459.1"
"15.3199","690.753","16.4588","0.329176","459.6"
"15.3366","690.428","16.4977","0.329954","460.1"
"15.3533","690.466","16.5268","0.330536","460.6"
"15.3699","690.403","16.5677","0.331354","461.1"
"15.3866","690.487","16.5998","0.331996","461.6"
"15.4032","690.192","16.6384","0.332768","462.1"
"15.4199","690.35","16.6686","0.333372","462.6"
"15.4366","690.1","16.7074","0.334148","463.1"
"15.4532","689.882","16.7415","0.33483","463.6"
"15.47","689.763","16.7821","0.335642","464.1"
"15.4866","689.795","16.8146","0.336292","464.6"
"15.5032","689.516","16.8494","0.336988","465.1"
"15.52","689.78","16.8788","0.337576","465.6"
"15.5365","689.455","16.9218","0.338436","466.1"
"15.5533","689.371","16.9504","0.339008","466.6"
"15.5699","688.987","16.992","0.33984","467.1"
"15.5866","688.942","17.023","0.34046","467.6"
"15.6033","688.842","17.0634","0.341268","468.1"
"15.6199","688.92","17.0931","0.341862","468.6"
"15.6365","688.705","17.1368","0.342736","469.1"
"15.6533","688.202","17.1675","0.34335","469.6"
"15.6699","688.21","17.2061","0.344122","470.1"
"15.6866","688.091","17.2396","0.344792","470.6"
"15.7033","687.734","17.2787","0.345574","471.1"
"15.7199","687.738","17.312","0.34624","471.6"
"15.7366","687.668","17.3551","0.347102","472.1"
"15.7532","687.43","17.3828","0.347656","472.6"
"15.7699","687.086","17.4234","0.348468","473.1"
"15.7866","686.865","17.4563","0.349126","473.6"
"15.8032","686.81","17.4952","0.349904","474.1"
"15.82","686.423","17.5262","0.350524","474.6"
"15.8366","686.49","17.5658","0.351316","475.1"
"15.8533","686.23","17.6037","0.352074","475.6"
"15.87","685.96","17.6437","0.352702","476.1"
"15.8866","685.888","17.6725","0.35345","476.6"
"15.9033","685.629","17.713","0.35426","477.1"
"15.9199","685.631","17.7503","0.355006","477.6"
"15.9366","685.234","17.7816","0.355632","478.1"
"15.9533","685.132","17.8214","0.356428","478.6"
"15.97","684.608","17.8498","0.356996","479.1"
"15.9866","684.611","17.8948","0.357896","479.6"
"16.0033","684.351","17.9271","0.358542","480.1"
"16.0199","684.082","17.9689","0.359378","480.6"
"16.0366","683.932","18.0036","0.360072","481.1"
"16.0533","683.548","18.0392","0.360784","481.6"
"16.0699","683.424","18.0732","0.361464","482.1"
"16.0866","683.321","18.1179","0.362358","482.6"
"16.1032","683.112","18.1488","0.362976","483.1"
"16.1199","682.79","18.1919","0.363838","483.6"
"16.1366","682.636","18.223","0.36446","484.1"
"16.1532","682.426","18.269","0.36538","484.6"
"16.17","682.234","18.2971","0.365942","485.1"
"16.1866","681.967","18.3387","0.366774","485.6"
"16.2032","681.603","18.3706","0.367412","486.1"
"16.2199","681.63","18.4141","0.368282","486.6"
"16.2366","681.31","18.4459","0.368918","487.1"
"16.2532","680.982","18.4897","0.369794","487.6"
"16.27","680.983","18.521","0.37042","488.1"
"16.2866","680.57","18.5614","0.371228","488.6"
"16.3033","680.518","18.5987","0.371974","489.1"
"16.3199","680.37","18.6434","0.372868","489.6"
"16.3366","680.127","18.6691","0.373382","490.1"
"16.3533","680.076","18.7092","0.374184","490.6"
"16.3699","679.745","18.743","0.37486","491.1"
"16.3866","679.616","18.7858","0.375716","491.6"
"16.4033","679.384","18.8172","0.376344","492.1"
"16.4166","679.137","18.8515","0.37703","492.5"