File: experimental_data/tensile_specimen_test_data/tensile_test_data/20250311/SSS 4 03-11-25 12 36 06 下午/数采：横梁, … - (实时值).csv
"文件路径: C:\Users\Lenovo\Desktop\Wayne\20250311\SSS 4 03-11-25 12 36 06 下午\数采：横梁, … - (实时值).csv   "
"试验: MTS EM 拉伸试验-W 2"
"试验运行: SSS 4"
"日期: 2025/3/11 12:13:46"
""
""
"横梁 ","力 ","应变 ","应力 ","时间 "
"mm","N","mm/mm","N/mm²","sec"
"0.00260817","-119.103","2.13466e-05","-6.54411","0.1"
"0.0366075","120.913","0.000304675","6.643565","1.1"
"0.0699083","353.853","0.000582569","19.4424","2.1"
"0.103256","581.406","0.000860075","31.9454","3.1"
"0.136603","805.556","0.00113836","44.2613","4.1"
"0.169997","1025.56","0.00141625","56.3496","5.1"
"0.203344","1240.37","0.00169415","68.1524","6.1"
"0.236598","1449.06","0.00197126","79.6185","7.1"
"0.269946","1654.67","0.00224916","90.9159","8.1"
"0.303293","1855.04","0.00252744","101.925","9.1"
"0.33664","2048.82","0.00280495","112.572","10.1"
"0.369941","2238.89","0.00308245","123.016","11.1"
"0.403242","2422.19","0.00335996","133.087","12.1"
"0.436636","2600.23","0.00363824","142.87","13.1"
"0.469983","2772.57","0.00391614","152.339","14.1"
"0.503237","2936.69","0.00419364","161.357","15.1"
"0.536585","3092.13","0.00447115","169.897","16.1"
"0.569932","3240.14","0.00474943","178.03","17.1"
"0.603279","3379.32","0.00502733","185.677","18.1"
"0.63658","3508.75","0.00530445","192.788","19.1"
"0.669927","3626.51","0.00558234","199.259","20.1"
"0.703321","3732.1","0.00586062","205.06","21.1"
"0.736669","3821.76","0.00613852","209.987","22.1"
"0.769923","3896.44","0.00641602","214.09","23.1"
"0.80327","3961.65","0.00669353","217.673","24.1"
"0.836617","4021.53","0.00697142","220.963","25.1"
"0.869965","4076.37","0.00724971","223.976","26.1"
"0.903312","4126.28","0.00752721","226.719","27.1"
"0.936613","4171.22","0.00780472","229.188","28.1"
"0.970007","4210.35","0.008083","231.338","29.1"
"1.00335","4242.77","0.0083609","233.119","30.1"
"1.03665","4268.2","0.0086384","234.516","31.1"
"1.06991","4288.4","0.00891552","235.626","32.1"
"1.10326","4304.21","0.00919341","236.495","33.1"
"1.13665","4317.39","0.0094717","237.219","34.1"
"1.16995","4328.11","0.00974959","237.808","35.1"
"1.20321","4336.51","0.0100267","238.27","36.1"
"1.2366","4344.49","0.010305","238.708","37.1"
"1.26999","4352.19","0.0105833","239.131","38.1"
"1.30329","4358.74","0.0108604","239.491","39.1"
"1.33659","4365.01","0.0111379","239.836","40.1"
"1.3699","4371.48","0.0114154","240.191","41.1"
"1.40329","4378.43","0.0116937","240.573","42.1"
"1.43664","4384.87","0.0119716","240.927","43.1"
"1.46989","4390.87","0.0122491","241.257","44.1"
"1.50328","4397.57","0.0125274","241.625","45.1"
"1.53668","4404.22","0.0128053","241.99","46.1"
"1.56998","4410.41","0.0130828","242.3304","47.1"
"1.60328","4416.58","0.0133603","242.669","48.1"
"1.63658","4422.62","0.0136378","243.001","49.1"
"1.66997","4429.54","0.0139161","243.381","50.1"
"1.70332","4435.98","0.0141943","243.735","51.1"
"1.73662","4442.27","0.0144715","244.081","52.1"
"1.76992","4448.81","0.014749","244.44","53.1"
"1.80332","4455.29","0.0150273","244.796","54.1"
"1.83662","4461.96","0.0153052","245.1628","55.1"
"1.86992","4468.24","0.0155823","245.507","56.1"
"1.90322","4474.15","0.0158598","245.832","57.1"
"1.93661","4480.99","0.0161381","246.2084","58.1"
"1.97001","4487.9","0.0164163","246.588","59.1"
"2.00326","4493.89","0.0166935","246.917","60.1"
"2.03661","4500.41","0.0169714","247.275","61.1"
"2.06996","4507.12","0.0172496","247.644","62.1"
"2.1033","4513.25","0.0175271","247.981","63.1"
"2.1366","4519.39","0.0178046","248.318","64.1"
"2.1699","4525.66","0.0180822","248.663","65.1"
"2.2033","4532.07","0.0183604","249.015","66.1"
"2.23665","4538.9","0.0186383","249.39","67.1"
"2.26999","4544.79","0.0189162","249.714","68.1"
"2.30329","4551.24","0.0191937","250.068","69.1"
"2.33659","4557.09","0.0194716","250.39","70.1"
"2.36999","4563.33","0.0197495","250.7324","71.1"
"2.40329","4569.42","0.0200274","251.067","72.1"
"2.43659","4575.15","0.0203045","251.382","73.1"
"2.46994","4581.33","0.0205824","251.722","74.1"
"2.50329","4587.8","0.0208607","252.077","75.1"
"2.53663","4593.81","0.0211382","252.407","76.1"
"2.56993","4599.56","0.0214157","252.723","77.1"
"2.60323","4605.44","0.0216936","253.046","78.1"
"2.63663","4611.82","0.0219719","253.397","79.1"
"2.66993","4617.56","0.0222494","253.712","80.1"
"2.70323","4623.58","0.0225265","254.043","81.1"
"2.73658","4628.87","0.0228048","254.333","82.1"
"2.76997","4635.33","0.0230827","254.688","83.1"
"2.80332","4641.28","0.0233606","255.016","84.1"
"2.83662","4646.69","0.0236385","255.313","85.1"
"2.86992","4652.53","0.023916","255.633","86.1"
"2.90331","4658.21","0.0241939","255.945","87.1"
"2.93666","4663.74","0.0244718","256.249","88.1"
"2.96996","4669.62","0.0247493","256.572","89.1"
"3.00326","4675.34","0.0250272","256.887","90.1"
"3.03661","4680.56","0.0253051","257.173","91.1"
"3.07","4686.44","0.025583","257.497","92.1"
"3.10335","4692.06","0.0258609","257.806","93.1"
"3.13656","4697.03","0.0261376","258.0784","94.1"
"3.16991","4701.64","0.0264159","258.332","95.1"
"3.2033","4707.53","0.0266938","258.656","96.1"
"3.2366","4712.88","0.0269713","258.949","97.1"
"3.2699","4717.84","0.0272492","259.222","98.1"
"3.30325","4723.24","0.0275271","259.518","99.1"
"3.33664","4729.05","0.0278054","259.838","100.1"
"3.36999","4734.57","0.0280829","260.141","101.1"
"3.40324","4738.83","0.02836","260.375","102.1"
"3.43659","4744.36","0.0286379","260.679","103.1"
"3.46998","4749.57","0.0289162","260.966","104.1"
"3.50329","4754.06","0.0291937","261.212","105.1"
"3.53659","4759.19","0.0294716","261.494","106.1"
"3.56993","4764.08","0.0297491","261.763","107.1"
"3.60333","4769.64","0.0300273","262.068","108.1"
"3.63668","4774.92","0.0303056","262.358","109.1"
"3.66993","4779.16","0.0305827","262.591","110.1"
"3.70323","4783.67","0.0308603","262.839","111.1"
"3.73662","4788.84","0.0311385","263.123","112.1"
"3.76997","4793.46","0.031416","263.377","113.1"
"3.80327","4798.24","0.0316935","263.639","114.1"
"3.83657","4785.65","0.0319714","262.948","115.1"
"3.86997","4794.37","0.0322493","263.4268","116.1"
"3.90331","4804.35","0.0325276","263.975","117.1"
"3.93661","4800.11","0.0328047","263.742","118.1"
"3.96992","4809.21","0.0330822","264.242","119.1"
"4.00326","4816.72","0.0333601","264.655","120.1"
"4.03661","4822.2","0.0336384","264.956","121.1"
"4.06996","4827.41","0.0339159","265.242","122.1"
"4.10326","4831.99","0.0341934","265.494","123.1"
"4.13665","4837.28","0.0344717","265.7848","124.1"
"4.17","4841.86","0.0347496","266.036","125.1"
"4.2033","4845.8","0.0350271","266.253","126.1"
"4.2366","4850.26","0.0353046","266.498","127.1"
"4.26995","4854.85","0.0355825","266.75","128.1"
"4.30334","4859.18","0.0358608","266.988","129.1"
"4.33669","4863.58","0.0361387","267.23","130.1"
"4.3699","4867.3","0.0364158","267.434","131.1"
"4.40329","4871.7","0.0366941","267.676","132.1"
"4.43668","4876.22","0.036972","267.924","133.1"
"4.46999","4880.4","0.0372495","268.154","134.1"
"4.50324","4883.63","0.037527","268.331","135.1"
"4.53654","4887.79","0.0378045","268.56","136.1"
"4.56998","4892.3","0.0380828","268.808","137.1"
"4.60328","4896.24","0.0383607","269.024","138.1"
"4.63658","4899.76","0.0386378","269.217","139.1"
"4.66993","4904","0.0389161","269.451","140.1"
"4.70332","4908.2","0.039194","269.681","141.1"
"4.73662","4911.86","0.0394715","269.882","142.1"
"4.76993","4915.31","0.0397494","270.072","143.1"
"4.80323","4918.88","0.0400265","270.268","144.1"
"4.83662","4923.21","0.0403048","270.506","145.1"
"4.87001","4926.86","0.0405831","270.707","146.1"
"4.90327","4930.65","0.0408602","270.915","147.1"
"4.93662","4934.14","0.0411381","271.106","148.1"
"4.97001","4938","0.0414164","271.319","149.1"
"5.00331","4941.96","0.0416942","271.536","150.1"
"5.03661","4945.53","0.0419718","271.732","151.1"
"5.06991","4948.31","0.0422489","271.885","152.1"
"5.10331","4952","0.0425272","272.088","153.1"
"5.1367","4956.55","0.0428054","272.338","154.1"
"5.16995","4959.47","0.0430826","272.4984","155.1"
"5.20325","4962.8","0.0433601","272.681","156.1"
"5.23665","4966.4","0.0436383","272.879","157.1"
"5.26995","4970.11","0.0439162","273.083","158.1"
"5.30325","4973.73","0.0441937","273.282","159.1"
"5.33655","4976.45","0.0444713","273.431","160.1"
"5.3699","4980.05","0.0447491","273.629","161.1"
"5.40329","4983.92","0.0450274","273.842","162.1"
"5.43659","4986.43","0.0453049","273.98","163.1"
"5.46994","4990.01","0.0455828","274.176","164.1"
"5.50329","4993.37","0.0458603","274.361","165.1"
"5.53663","4996.22","0.0461382","274.518","166.1"
"5.56994","4999.67","0.0464161","274.707","167.1"
"5.60324","5002.65","0.0466932","274.871","168.1"
"5.63658","4981.02","0.0469715","273.6824","169.1"
"5.66998","4995.57","0.0472494","274.482","170.1"
"5.70337","5003.28","0.0475277","274.906","171.1"
"5.73663","5008.32","0.0478048","275.182","172.1"
"5.76993","5012.02","0.0480827","275.386","173.1"
"5.80332","5016.04","0.0483606","275.607","174.1"
"5.83662","5019.99","0.0486385","275.824","175.1"
"5.86992","5022.67","0.0489156","275.971","176.1"
"5.90327","5025.86","0.0491935","276.146","177.1"
"5.93662","5029.3","0.0494714","276.335","178.1"
"5.96996","5032.55","0.0497497","276.514","179.1"
"6.00331","5034.64","0.0500272","276.629","180.1"
"6.03656","5037.55","0.0503043","276.788","181.1"
"6.06996","5041.11","0.0505826","276.984","182.1"
"6.10331","5044.18","0.0508605","277.153","183.1"
"6.13661","5047.03","0.051138","277.309","184.1"
"6.16995","5049.81","0.0514159","277.462","185.1"
"6.20326","5052.79","0.0516934","277.626","186.1"
"6.23665","5056.56","0.0519717","277.833","187.1"
"6.27","5059.4","0.0522496","277.989","188.1"
"6.30325","5023.07","0.0525267","275.993","189.1"
"6.3366","5042.46","0.052805","277.058","190.1"
"6.36999","5052.28","0.0530829","277.598","191.1"
"6.40329","5058.29","0.0533604","277.928","192.1"
"6.43664","5063.12","0.0536383","278.193","193.1"
"6.46994","5066.63","0.0539158","278.386","194.1"
"6.50333","5070.73","0.0541941","278.612","195.1"
"6.53668","5074.03","0.054472","278.793","196.1"
"6.56989","5076.31","0.0547491","278.918","197.1"
"6.60324","5079.77","0.055027","279.109","198.1"
"6.63663","5082.94","0.0553049","279.282","199.1"
"6.66993","5085.21","0.0555824","279.407","200.1"
"6.70328","5088.07","0.0558603","279.564","201.1"
"6.73658","5090.85","0.0561378","279.717","202.1"
"6.76997","5094.22","0.0564161","279.902","203.1"
"6.80332","5097.11","0.0566943","280.061","204.1"
"6.83657","5099.14","0.0569715","280.173","205.1"
"6.86992","5101.69","0.057249","280.313","206.1"
"6.90327","5104.58","0.0575272","280.471","207.1"
"6.93662","5107.44","0.0578048","280.628","208.1"
"6.96996","5110.18","0.0580826","280.7792","209.1"
"7.00326","5112.37","0.0583602","280.899","210.1"
"7.03666","5115.56","0.0586384","281.075","211.1"
"7.07005","5118.77","0.0589167","281.251","212.1"
"7.10326","5120.62","0.0591938","281.353","213.1"
"7.13656","5122.69","0.0594713","281.466","214.1"
"7.16995","5125.64","0.0597492","281.629","215.1"
"7.2033","5128.33","0.0600271","281.776","216.1"
"7.2366","5130.32","0.060305","281.886","217.1"
"7.2699","5132.61","0.0605825","282.012","218.1"
"7.3033","5135.44","0.0608604","282.167","219.1"
"7.33664","5138.12","0.0611383","282.314","220.1"
"7.36995","5140.09","0.0614158","282.423","221.1"
"7.40325","5142.36","0.0616933","282.547","222.1"
"7.43655","5145.42","0.0619712","282.7152","223.1"
"7.46999","5147.66","0.0622495","282.838","224.1"
"7.50329","5150.25","0.0625274","282.981","225.1"
"7.53659","5152.72","0.0628045","283.116","226.1"
"7.56994","5154.82","0.0630824","283.232","227.1"
"7.60333","5157.44","0.0633607","283.376","228.1"
"7.63663","5160.03","0.0636382","283.518","229.1"
"7.66993","5161.76","0.0639157","283.613","230.1"
"7.70323","5163.91","0.0641932","283.731","231.1"
"7.73667","5166.98","0.0644719","283.9","232.1"
"7.77002","5169.03","0.0647498","284.013","233.1"
"7.80327","5170.85","0.0650269","284.113","234.1"
"7.83667","5173.31","0.0653052","284.248","235.1"
"7.87002","5175.76","0.0655831","284.382","236.1"
"7.90332","5178.07","0.0658606","284.509","237.1"
"7.93662","5180.01","0.0661381","284.616","238.1"
"7.96987","5182.05","0.0664156","284.728","239.1"
"8.00327","5184.66","0.0666939","284.871","240.1"
"8.03666","5186.65","0.0669718","284.981","241.1"
"8.06991","5188.56","0.0672493","285.086","242.1"
"8.10326","5191.23","0.0675268","285.233","243.1"
"8.13666","5193.22","0.0678051","285.342","244.1"
"8.16996","5195.66","0.068083","285.476","245.1"
"8.2033","5198","0.0683605","285.604","246.1"
"8.23656","5199.49","0.0686376","285.686","247.1"
"8.26995","5201.8","0.0689159","285.813","248.1"
"8.30335","5204.13","0.0691942","285.941","249.1"
"8.3366","5206.32","0.0694713","286.062","250.1"
"8.36995","5208.21","0.0697492","286.165","251.1"
"8.40329","5210.6","0.0700274","286.297","252.1"
"8.43664","5213.15","0.0703053","286.437","253.1"
"8.46999","5214.81","0.0705828","286.528","254.1"
"8.50324","5216.13","0.07086","286.6008","255.1"
"8.53664","5218.47","0.0711382","286.729","256.1"
"8.56998","5221.29","0.0714165","286.884","257.1"
"8.60333","5222.75","0.071694","286.964","258.1"
"8.63663","5224.73","0.0719715","287.073","259.1"
"8.66998","5227","0.0722494","287.198","260.1"
"8.70328","5228.97","0.0725269","287.306","261.1"
"8.73663","5231.02","0.0728048","287.418","262.1"
"8.76993","5233.15","0.0730823","287.535","263.1"
"8.80323","5234.9","0.0733599","287.632","264.1"
"8.83662","5237.18","0.0736381","287.757","265.1"
"8.86997","5239.12","0.0739164","287.864","266.1"
"8.90327","5241.16","0.0741939","287.976","267.1"
"8.93657","5242.69","0.074471","288.06","268.1"
"8.96997","5245","0.0747493","288.187","269.1"
"9.00331","5247.16","0.0750272","288.306","270.1"
"9.03657","5248.78","0.0753047","288.395","271.1"
"9.06991","5250.2","0.0755826","288.472","272.1"
"9.10331","5252.56","0.0758605","288.602","273.1"
"9.1367","5254.99","0.0761388","288.736","274.1"
"9.17","5256.61","0.0764163","288.824","275.1"
"9.20326","5258.56","0.0766938","288.932","276.1"
"9.23665","5260.39","0.0769717","289.032","277.1"
"9.26995","5262.49","0.0772496","289.148","278.1"
"9.30325","5264.05","0.0775271","289.233","279.1"
"9.3366","5265.91","0.0778046","289.336","280.1"
"9.3699","5267.79","0.0780825","289.439","281.1"
"9.40329","5269.51","0.0783608","289.534","282.1"
"9.43664","5271.45","0.0786383","289.64","283.1"
"9.4699","5273.01","0.0789154","289.726","284.1"
"9.50324","5274.83","0.0791937","289.826","285.1"
"9.53664","5276.67","0.0794716","289.927","286.1"
"9.56994","5278.88","0.0797491","290.048","287.1"
"9.60329","5280.53","0.080027","290.139","288.1"
"9.63659","5282.4","0.0803045","290.242","289.1"
"9.66998","5284.87","0.0805832","290.377","290.1"
"9.70333","5286.6","0.0808607","290.472","291.1"
"9.73658","5287.51","0.0811378","290.523","292.1"
"9.76993","5289.93","0.0814157","290.655","293.1"
"9.80332","5291.71","0.081694","290.754","294.1"
"9.83662","5293.53","0.0819715","290.854","295.1"
"9.86997","5294.76","0.0822494","290.921","296.1"
"9.90327","5296.5","0.0825269","291.016","297.1"
"9.93667","5298.77","0.0828052","291.141","298.1"
"9.97001","5300.73","0.0830834","291.249","299.1"
"10.0033","5302.19","0.0833602","291.329","300.1"
"10.0366","5303.97","0.0836377","291.427","301.1"
"10.07","5305.5","0.083916","291.511","302.1"
"10.1033","5307.4","0.0841938","291.615","303.1"
"10.1366","5309.23","0.0844714","291.716","304.1"
"10.1699","5310.5","0.0847489","291.786","305.1"
"10.2033","5312.46","0.0850271","291.893","306.1"
"10.2367","5314.89","0.0853054","292.027","307.1"
"10.27","5316.12","0.0855825","292.094","308.1"
"10.3032","5317.3","0.0858601","292.16","309.1"
"10.3366","5319.35","0.086138","292.272","310.1"
"10.37","5321.03","0.0864162","292.364","311.1"
"10.4033","5322.55","0.0866937","292.448","312.1"
"10.4366","5323.97","0.0869712","292.526","313.1"
"10.47","5325.85","0.0872495","292.629","314.1"
"10.5033","5328.13","0.0875278","292.755","315.1"
"10.5366","5329.38","0.0878049","292.823","316.1"
"10.5699","5331.18","0.0880824","292.922","317.1"
"10.6032","5332.77","0.0883603","293.009","318.1"
"10.6366","5334.64","0.0886386","293.112","319.1"
"10.67","5336.41","0.0889161","293.209","320.1"
"10.7032","5337.53","0.0891936","293.271","321.1"
"10.7366","5339.39","0.0894715","293.373","322.1"
"10.77","5340.84","0.0897494","293.4528","323.1"
"10.8033","5342.47","0.0900273","293.542","324.1"
"10.8366","5343.56","0.0903044","293.602","325.1"
"10.8699","5344.97","0.0905819","293.68","326.1"
"10.9033","5347.06","0.0908606","293.795","327.1"
"10.9367","5349.02","0.0911385","293.902","328.1"
"10.9699","5350.18","0.0914156","293.966","329.1"
"11.0033","5351.25","0.0916939","294.025","330.1"
"11.0367","5353.83","0.0919718","294.166","331.1"
"11.07","5355.51","0.0922493","294.259","332.1"
"11.1033","5356.02","0.0925268","294.287","333.1"
"11.1366","5357.58","0.0928043","294.373","334.1"
"11.17","5359.55","0.093083","294.481","335.1"
"11.2034","5361.08","0.0933609","294.565","336.1"
"11.2366","5362.55","0.093638","294.645","337.1"
"11.27","5364.01","0.0939163","294.726","338.1"
"11.3033","5365.75","0.0941938","294.822","339.1"
"11.3366","5367.11","0.0944721","294.896","340.1"
"11.3699","5368.42","0.0947496","294.968","341.1"
"11.4032","5369.83","0.0950267","295.045","342.1"
"11.4366","5371.57","0.0953046","295.141","343.1"
"11.47","5373.1","0.0955829","295.225","344.1"
"11.5033","5375.01","0.0958604","295.33","345.1"
"11.5366","5376.35","0.0961379","295.404","346.1"
"11.5699","5377.6","0.0964158","295.472","347.1"
"11.6033","5379.36","0.0966941","295.569","348.1"
"11.6366","5380.8","0.0969716","295.648","349.1"
"11.6699","5381.27","0.0972487","295.674","350.1"
"11.7032","5383.12","0.097527","295.776","351.1"
"11.7367","5385.49","0.0978052","295.906","352.1"
"11.7699","5386.33","0.0980828","295.952","353.1"
"11.8033","5387.52","0.0983603","296.017","354.1"
"11.8366","5389.15","0.0986381","296.107","355.1"
"11.87","5391.04","0.098916","296.211","356.1"
"11.9033","5392.52","0.0991939","296.292","357.1"
"11.9366","5393.59","0.0994714","296.351","358.1"
"11.9699","5395.6","0.0997493","296.462","359.1"
"12.0033","5396.61","0.100027","296.517","360.1"
"12.0367","5397.87","0.100305","296.586","361.1"
"12.07","5399.67","0.100583","296.685","362.1"
"12.1033","5400.55","0.10086","296.733","363.1"
"12.1366","5401.78","0.101138","296.801","364.1"
"12.17","5403.72","0.101416","296.908","365.1"
"12.2033","5404.92","0.101693","296.974","366.1"
"12.2366","5406.04","0.101971","297.035","367.1"
"12.27","5407.95","0.102249","297.14","368.1"
"12.3033","5409.38","0.102528","297.219","369.1"
"12.3366","5410.83","0.102805","297.298","370.1"
"12.3699","5411.93","0.103083","297.359","371.1"
"12.4033","5413.54","0.10336","297.447","372.1"
"12.4366","5415.15","0.103638","297.536","373.1"
"12.4699","5415.98","0.103916","297.582","374.1"
"12.5032","5416.87","0.104194","297.63","375.1"
"12.5366","5418.62","0.104472","297.726","376.1"
"12.57","5420.53","0.10475","297.832","377.1"
"12.6033","5421.75","0.105027","297.898","378.1"
"12.6366","5423.06","0.105305","297.971","379.1"
"12.6699","5424.25","0.105582","298.036","380.1"
"12.7033","5425.6","0.105861","298.11","381.1"
"12.7366","5427.23","0.106138","298.1992","382.1"
"12.7699","5428.24","0.106416","298.255","383.1"
"12.8032","5429.18","0.106693","298.3064","384.1"
"12.8366","5431.1","0.106972","298.412","385.1"
"12.87","5432.66","0.10725","298.498","386.1"
"12.9032","5433.19","0.107527","298.527","387.1"
"12.9366","5434.65","0.107805","298.6072","388.1"
"12.97","5436.14","0.108083","298.689","389.1"
"13.0033","5437.43","0.10836","298.76","390.1"
"13.0366","5438.49","0.108638","298.818","391.1"
"13.0699","5439.42","0.108916","298.869","392.1"
"13.1033","5441.66","0.109194","298.992","393.1"
"13.1367","5442.8","0.109472","299.055","394.1"
"13.1699","5443.91","0.109749","299.116","395.1"
"13.2033","5445.18","0.110027","299.186","396.1"
"13.2366","5446.42","0.110305","299.254","397.1"
"13.27","5447.83","0.110583","299.331","398.1"
"13.3033","5449.33","0.11086","299.413","399.1"
"13.3366","5450.32","0.111138","299.468","400.1"
"13.3699","5451.49","0.111416","299.532","401.1"
"13.4034","5453.25","0.111695","299.629","402.1"
"13.4366","5453.89","0.111972","299.664","403.1"
"13.4699","5455.32","0.112249","299.743","404.1"
"13.5032","5456.17","0.112527","299.79","405.1"
"13.5366","5457.74","0.112805","299.876","406.1"
"13.5699","5459.43","0.113083","299.9688","407.1"
"13.6032","5459.97","0.11336","299.998","408.1"
"13.6366","5461.85","0.113638","300.102","409.1"
"13.67","5463.73","0.113917","300.205","410.1"
"13.7033","5464.16","0.114194","300.229","411.1"
"13.7366","5465.1","0.114471","300.28","412.1"
"13.7699","5466.44","0.114749","300.354","413.1"
"13.8033","5467.91","0.115027","300.4344","414.1"
"13.8366","5469.11","0.115305","300.5","415.1"
"13.8699","5469.95","0.115582","300.546","416.1"
"13.9033","5471.54","0.115861","300.634","417.1"
"13.9367","5473.34","0.116139","300.733","418.1"
"13.97","5474.28","0.116416","300.785","419.1"
"14.0033","5475.41","0.116694","300.847","420.1"
"14.0366","5476.11","0.116971","300.885","421.1"
"14.07","5477.42","0.11725","300.957","422.1"
"14.1033","5479.25","0.117528","301.058","423.1"
"14.1366","5480.16","0.117805","301.108","424.1"
"14.1699","5480.75","0.118083","301.14","425.1"
"14.2033","5482.37","0.118361","301.229","426.1"
"14.2367","5484.01","0.118638","301.3192","427.1"
"14.2699","5484.68","0.118916","301.356","428.1"
"14.3032","5485.43","0.119193","301.397","429.1"
"14.3366","5487.36","0.119472","301.503","430.1"
"14.37","5488.36","0.11975","301.558","431.1"
"14.4033","5489.3","0.120027","301.61","432.1"
"14.4366","5490.33","0.120305","301.6664","433.1"
"14.4699","5491.75","0.120582","301.745","434.1"
"14.5033","5492.97","0.12086","301.812","435.1"
"14.5366","5493.82","0.121138","301.858","436.1"
"14.5699","5495.01","0.121415","301.923","437.1"
"14.6033","5496.39","0.121694","302","438.1"
"14.6367","5497.73","0.121972","302.073","439.1"
"14.67","5498.83","0.122249","302.133","440.1"
"14.7033","5499.8","0.122527","302.187","441.1"
"14.7366","5500.64","0.122805","302.233","442.1"
"14.77","5502.18","0.123083","302.318","443.1"
"14.8033","5503.39","0.123361","302.384","444.1"
"14.8365","5503.87","0.123638","302.411","445.1"
"14.8699","5504.9","0.123916","302.467","446.1"
"14.9033","5506.76","0.124194","302.569","447.1"
"14.9366","5507.58","0.124471","302.6144","448.1"
"14.9699","5508.46","0.124749","302.663","449.1"
"15.0033","5509.42","0.125027","302.715","450.1"
"15.0366","5511.01","0.125305","302.803","451.1"
"15.07","5511.99","0.125583","302.856","452.1"
"15.1032","5512.64","0.12586","302.892","453.1"
"15.1366","5513.93","0.126138","302.963","454.1"
"15.17","5515.34","0.126416","303.041","455.1"
"15.2033","5516.49","0.126694","303.104","456.1"
"15.2367","5517.59","0.126972","303.165","457.1"
"15.27","5518.44","0.127249","303.211","458.1"
"15.3033","5519.34","0.127527","303.26","459.1"
"15.3367","5521.05","0.127805","303.355","460.1"
"15.37","5521.69","0.128083","303.39","461.1"
"15.4033","5522.49","0.12836","303.433","462.1"
"15.4366","5524.25","0.128638","303.53","463.1"
"15.47","5525.43","0.128917","303.595","464.1"
"15.5033","5526.96","0.129194","303.679","465.1"
"15.5366","5526.72","0.129471","303.666","466.1"
"15.5699","5527.93","0.129749","303.732","467.1"
"15.6033","5529.5","0.130027","303.819","468.1"
"15.6366","5530.13","0.130305","303.853","469.1"
"15.6699","5531.44","0.130582","303.925","470.1"
"15.7032","5532.79","0.13086","303.999","471.1"
"15.7366","5534.22","0.131139","304.078","472.1"
"15.77","5535.15","0.131416","304.129","473.1"
"15.8032","5535.81","0.131694","304.165","474.1"
"15.8366","5537.1","0.131972","304.236","475.1"
"15.8699","5538.05","0.132249","304.288","476.1"
"15.9033","5539.3","0.132527","304.357","477.1"
"15.9366","5540.22","0.132805","304.408","478.1"
"15.9699","5541.02","0.133082","304.451","479.1"
"16.0034","5542.48","0.133361","304.532","480.1"
"16.0367","5543.54","0.133639","304.59","481.1"
"16.0699","5544.45","0.133916","304.64","482.1"
"16.1033","5545.1","0.134194","304.676","483.1"
"16.1367","5546.46","0.134472","304.751","484.1"
"16.17","5547.71","0.13475","304.819","485.1"
"16.2033","5548.37","0.135027","304.856","486.1"
"16.2366","5548.88","0.135304","304.884","487.1"
"16.27","5550.7","0.135583","304.983","488.1"
"16.3033","5552.06","0.135861","305.058","489.1"
"16.3366","5552.22","0.136138","305.067","490.1"
"16.3699","5553.21","0.136416","305.121","491.1"
"16.4033","5554.08","0.136693","305.169","492.1"
"16.4366","5554.77","0.136972","305.207","493.1"
"16.47","5555.96","0.13725","305.273","494.1"
"16.5032","5556.6","0.137527","305.308","495.1"
"16.5366","5557.43","0.137805","305.353","496.1"
"16.57","5558.83","0.138083","305.43","497.1"
"16.6033","5559.57","0.13836","305.471","498.1"
"16.6366","5560.53","0.138638","305.524","499.1"
"16.6699","5561.28","0.138916","305.565","500.1"
"16.7033","5562.84","0.139194","305.651","501.1"
"16.7367","5564.16","0.139472","305.723","502.1"
"16.7699","5564.53","0.139749","305.744","503.1"
"16.8033","5565.97","0.140027","305.8224","504.1"
"16.8367","5567.55","0.140306","305.909","505.1"
"16.87","5568","0.140583","305.934","506.1"
"16.9032","5568.74","0.14086","305.975","507.1"
"16.9366","5569.56","0.141138","306.02","508.1"
"16.9699","5570.66","0.141416","306.08","509.1"
"17.0033","5572.03","0.141694","306.155","510.1"
"17.0366","5572.67","0.141971","306.191","511.1"
"17.07","5573.71","0.142249","306.248","512.1"
"17.1033","5574.83","0.142527","306.309","513.1"
"17.1367","5575.89","0.142805","306.368","514.1"
"17.1699","5576.5","0.143082","306.401","515.1"
"17.2032","5577.37","0.14336","306.449","516.1"
"17.2366","5578.3","0.143638","306.5","517.1"
"17.27","5579.3","0.143916","306.555","518.1"
"17.3033","5580.29","0.144194","306.609","519.1"
"17.3366","5580.95","0.144471","306.646","520.1"
"17.37","5581.94","0.14475","306.7","521.1"
"17.4033","5583.34","0.145028","306.777","522.1"
"17.4366","5575.78","0.145305","306.361","523.1"
"17.4699","5578.36","0.145582","306.503","524.1"
"17.5033","5580.84","0.145861","306.64","525.1"
"17.5366","5582.75","0.146139","306.745","526.1"
"17.5699","5583.52","0.146416","306.787","527.1"
"17.6033","5584.42","0.146694","306.836","528.1"
"17.6366","5586.03","0.146972","306.925","529.1"
"17.67","5587.09","0.147249","306.983","530.1"
"17.7033","5587.6","0.147527","307.011","531.1"
"17.7365","5588.51","0.147804","307.061","532.1"
"17.7699","5589.78","0.148082","307.131","533.1"
"17.8033","5590.67","0.148361","307.179","534.1"
"17.8366","5591.81","0.148638","307.242","535.1"
"17.87","5592.74","0.148916","307.293","536.1"
"17.9033","5593.37","0.149194","307.328","537.1"
"17.9366","5594.81","0.149471","307.407","538.1"
"17.97","5595.83","0.149749","307.463","539.1"
"18.0032","5596.53","0.150026","307.501","540.1"
"18.0366","5597.56","0.150305","307.558","541.1"
"18.07","5598.68","0.150583","307.62","542.1"
"18.1033","5599.86","0.150861","307.685","543.1"
"18.1367","5600.28","0.151138","307.708","544.1"
"18.17","5600.95","0.151416","307.744","545.1"
"18.2033","5602.55","0.151694","307.832","546.1"
"18.2367","5603.03","0.151972","307.859","547.1"
"18.2699","5603.45","0.152249","307.882","548.1"
"18.3033","5604.61","0.152527","307.945","549.1"
"18.3367","5606.22","0.152805","308.034","550.1"
"18.37","5607.02","0.153083","308.078","551.1"
"18.4033","5608.07","0.15336","308.136","552.1"
"18.4366","5608.63","0.153638","308.166","553.1"
"18.4699","5609.35","0.153916","308.206","554.1"
"18.5033","5610.93","0.154194","308.293","555.1"
"18.5366","5611.27","0.154471","308.311","556.1"
"18.5699","5611.23","0.154749","308.309","557.1"
"18.6033","5612.14","0.155027","308.359","558.1"
"18.6366","5613.56","0.155305","308.437","559.1"
"18.67","5614.29","0.155583","308.4776","560.1"
"18.7033","5613.5","0.15586","308.434","561.1"
"18.7366","5614.7","0.156138","308.5","562.1"
"18.77","5616.06","0.156417","308.574","563.1"
"18.8033","5616.44","0.156694","308.596","564.1"
"18.8366","5617.03","0.156972","308.628","565.1"
"18.8699","5618.28","0.157249","308.697","566.1"
"18.9033","5619.7","0.157528","308.775","567.1"
"18.9367","5620.41","0.157805","308.814","568.1"
"18.9699","5620.96","0.158082","308.844","569.1"
"19.0032","5621.95","0.15836","308.8984","570.1"
"19.0366","5623.08","0.158638","308.96","571.1"
"19.07","5623.69","0.158916","308.994","572.1"
"19.1033","5624.48","0.159194","309.0376","573.1"
"19.1366","5625.02","0.159471","309.067","574.1"
"19.17","5625.89","0.15975","309.115","575.1"
"19.2034","5627.1","0.160028","309.182","576.1"
"19.2366","5627.94","0.160305","309.227","577.1"
"19.2699","5628.26","0.160582","309.2448","578.1"
"19.3033","5629.21","0.16086","309.297","579.1"
"19.3367","5630.65","0.161138","309.376","580.1"
"19.37","5630.85","0.161416","309.387","581.1"
"19.4033","5631.47","0.161693","309.421","582.1"
"19.4367","5632.89","0.161972","309.499","583.1"
"19.47","5634.31","0.16225","309.578","584.1"
"19.5033","5634.33","0.162527","309.579","585.1"
"19.5366","5634.79","0.162805","309.604","586.1"
"19.5699","5634.89","0.163082","309.61","587.1"
"19.6033","5635.84","0.163361","309.662","588.1"
"19.6366","5636.58","0.163638","309.702","589.1"
"19.6699","5637.18","0.163916","309.735","590.1"
"19.7033","5638.11","0.164194","309.786","591.1"
"19.7367","5639.01","0.164472","309.836","592.1"
"19.7699","5639.85","0.164749","309.882","593.1"
"19.8032","5640.01","0.165027","309.89","594.1"
"19.8366","5640.22","0.165304","309.902","595.1"
"19.8699","5641.42","0.165583","309.968","596.1"
"19.9033","5642.71","0.165861","310.039","597.1"
"19.9366","5642.86","0.166138","310.047","598.1"
"19.9699","5643.78","0.166416","310.098","599.1"
"20.0034","5645","0.166694","310.165","600.1"
"20.0366","5645.65","0.166971","310.2","601.1"
"20.0699","5646.23","0.167249","310.232","602.1"
"20.1033","5646.8","0.167527","310.264","603.1"
"20.1367","5648.19","0.167805","310.34","604.1"
"20.17","5649.07","0.168083","310.388","605.1"
"20.2033","5649.24","0.168361","310.398","606.1"
"20.2366","5650.31","0.168638","310.457","607.1"
"20.27","5651.74","0.168916","310.535","608.1"
"20.3033","5651.78","0.169194","310.537","609.1"
"20.3366","5652.8","0.169471","310.593","610.1"
"20.3699","5653.32","0.169749","310.622","611.1"
"20.4033","5653.84","0.170027","310.6504","612.1"
"20.4366","5655.21","0.170305","310.726","613.1"
"20.47","5655.56","0.170583","310.745","614.1"
"20.5033","5656.53","0.17086","310.798","615.1"
"20.5366","5657.36","0.171138","310.844","616.1"
"20.57","5658.25","0.171416","310.893","617.1"
"20.6032","5659.07","0.171694","310.938","618.1"
"20.6365","5659.51","0.171971","310.962","619.1"
"20.6699","5660.33","0.172249","311.007","620.1"
"20.7033","5661.64","0.172527","311.079","621.1"
"20.7366","5662.08","0.172805","311.103","622.1"
"20.7699","5662.66","0.173082","311.135","623.1"
"20.8033","5663.7","0.173361","311.192","624.1"
"20.8367","5664.87","0.173639","311.257","625.1"
"20.87","5665.4","0.173916","311.2856","626.1"
"20.9032","5666.05","0.174194","311.3216","627.1"
"20.9366","5667.16","0.174471","311.382","628.1"
"20.97","5667.57","0.17475","311.405","629.1"
"21.0033","5668.34","0.175027","311.447","630.1"
"21.0366","5669.29","0.175305","311.5","631.1"
"21.0699","5669.86","0.175582","311.531","632.1"
"21.1033","5670.72","0.175861","311.578","633.1"
"21.1366","5671.59","0.176138","311.626","634.1"
"21.1699","5672.26","0.176416","311.662","635.1"
"21.2033","5672.54","0.176693","311.678","636.1"
"21.2366","5673.5","0.176971","311.731","637.1"
"21.27","5674.68","0.17725","311.795","638.1"
"21.3033","5675.4","0.177527","311.835","639.1"
"21.3366","5675.53","0.177805","311.842","640.1"
"21.37","5676.79","0.178083","311.911","641.1"
"21.4033","5677.52","0.17836","311.952","642.1"
"21.4366","5677.98","0.178638","311.9768","643.1"
"21.47","5678.62","0.178916","312.012","644.1"
"21.5033","5679.9","0.179194","312.082","645.1"
"21.5366","5680.66","0.179472","312.124","646.1"
"21.57","5681.55","0.17975","312.173","647.1"
"21.6032","5682.13","0.180027","312.2048","648.1"
"21.6366","5682.82","0.180305","312.243","649.1"
"21.67","5683.62","0.180583","312.287","650.1"
"21.7033","5684.17","0.18086","312.317","651.1"
"21.7366","5685.09","0.181138","312.367","652.1"
"21.7699","5685.75","0.181416","312.404","653.1"
"21.8033","5686.57","0.181694","312.449","654.1"
"21.8366","5687.77","0.181972","312.515","655.1"
"21.8699","5687.94","0.182249","312.524","656.1"
"21.9032","5688.73","0.182527","312.567","657.1"
"21.9366","5689.96","0.182805","312.635","658.1"
"21.9699","5690.56","0.183083","312.668","659.1"
"22.0032","5690.61","0.18336","312.671","660.1"
"22.0366","5691.59","0.183638","312.725","661.1"
"22.07","5692.88","0.183916","312.796","662.1"
"22.1033","5693.6","0.184194","312.835","663.1"
"22.1366","5693.63","0.184471","312.837","664.1"
"22.1699","5694.34","0.184749","312.876","665.1"
"22.2033","5695.61","0.185027","312.946","666.1"
"22.2367","5696.13","0.185305","312.974","667.1"
"22.27","5696.64","0.185583","313.002","668.1"
"22.3033","5697.6","0.18586","313.055","669.1"
"22.3367","5698.38","0.186139","313.098","670.1"
"22.37","5698.99","0.186417","313.132","671.1"
"22.4033","5700.13","0.186694","313.194","672.1"
"22.4366","5700.41","0.186971","313.209","673.1"
"22.47","5701.17","0.187249","313.251","674.1"
"22.5033","5702.12","0.187527","313.303","675.1"
"22.5366","5702.51","0.187805","313.325","676.1"
"22.5699","5702.99","0.188082","313.351","677.1"
"22.6033","5703.94","0.188361","313.403","678.1"
"22.6367","5704.93","0.188639","313.458","679.1"
"22.6699","5705.27","0.188916","313.476","680.1"
"22.7032","5705.77","0.189194","313.504","681.1"
"22.7366","5706.88","0.189471","313.565","682.1"
"22.7699","5707.97","0.189749","313.625","683.1"
"22.8033","5708.33","0.190027","313.645","684.1"
"22.8366","5708.76","0.190304","313.668","685.1"
"22.87","5709.77","0.190583","313.724","686.1"
"22.9033","5710.25","0.190861","313.75","687.1"
"22.9366","5711.25","0.191138","313.805","688.1"
"22.9699","5711.69","0.191416","313.829","689.1"
"23.0032","5712.19","0.191694","313.857","690.1"
"23.0366","5713.11","0.191972","313.9072","691.1"
"23.07","5714.04","0.19225","313.958","692.1"
"23.1032","5714.32","0.192527","313.973","693.1"
"23.1366","5714.83","0.192805","314.002","694.1"
"23.17","5715.77","0.193083","314.053","695.1"
"23.2033","5716.69","0.193361","314.104","696.1"
"23.2366","5717.16","0.193638","314.1296","697.1"
"23.2699","5717.19","0.193916","314.131","698.1"
"23.3033","5718.48","0.194194","314.202","699.1"
"23.3367","5719.37","0.194472","314.251","700.1"
"23.3699","5719.28","0.194749","314.246","701.1"
"23.4033","5720.17","0.195027","314.295","702.1"
"23.4367","5721.27","0.195305","314.356","703.1"
"23.47","5721.75","0.195583","314.382","704.1"
"23.5033","5722.39","0.19586","314.417","705.1"
"23.5366","5722.89","0.196138","314.445","706.1"
"23.5699","5723.6","0.196416","314.483","707.1"
"23.6033","5724.77","0.196694","314.548","708.1"
"23.6366","5725.13","0.196972","314.568","709.1"
"23.6699","5725.99","0.197249","314.615","710.1"
"23.7033","5726.45","0.197527","314.64","711.1"
"23.7366","5727.35","0.197805","314.689","712.1"
"23.7699","5728.26","0.198083","314.74","713.1"
"23.8032","5728.25","0.19836","314.739","714.1"
"23.8366","5728.48","0.198638","314.752","715.1"
"23.87","5729.99","0.198916","314.835","716.1"
"23.9033","5730.78","0.199194","314.878","717.1"
"23.9366","5730.625","0.199472","314.87","718.1"
"23.9699","5730.46","0.199749","314.86","719.1"
"24.0033","5731.52","0.200027","314.919","720.1"
"24.0366","5729.31","0.200305","314.797","721.1"
"24.0699","5729.51","0.200582","314.808","722.1"
"24.1033","5730.79","0.20086","314.879","723.1"
"24.1366","5732.2","0.201138","314.956","724.1"
"24.17","5732.88","0.201416","314.994","725.1"
"24.2033","5733.89","0.201694","315.049","726.1"
"24.2366","5734.28","0.201971","315.07","727.1"
"24.27","5735.11","0.20225","315.116","728.1"
"24.3033","5735.71","0.202527","315.149","729.1"
"24.3366","5736.02","0.202805","315.166","730.1"
"24.37","5736.71","0.203083","315.204","731.1"
"24.4033","5737.08","0.20336","315.224","732.1"
"24.4367","5738.16","0.203638","315.284","733.1"
"24.47","5738.84","0.203916","315.321","734.1"
"24.5033","5738.98","0.204193","315.329","735.1"
"24.5366","5740.28","0.204472","315.4","736.1"
"24.5699","5740.9","0.20475","315.434","737.1"
"24.6032","5741.15","0.205027","315.448","738.1"
"24.6366","5741.93","0.205305","315.491","739.1"
"24.6699","5742.67","0.205582","315.531","740.1"
"24.7033","5743.52","0.205861","315.578","741.1"
"24.7366","5743.72","0.206138","315.589","742.1"
"24.7699","5744.32","0.206416","315.622","743.1"
"24.8033","5745.11","0.206694","315.6656","744.1"
"24.8366","5746.14","0.206972","315.722","745.1"
"24.8699","5746.3","0.207249","315.731","746.1"
"24.9033","5746.88","0.207527","315.762","747.1"
"24.9366","5747.38","0.207805","315.79","748.1"
"24.97","5748.34","0.208083","315.843","749.1"
"25.0034","5749.23","0.208361","315.892","750.1"
"25.0366","5749.56","0.208638","315.91","751.1"
"25.0699","5749.92","0.208916","315.93","752.1"
"25.1033","5750.91","0.209194","315.984","753.1"
"25.1366","5751.47","0.209471","316.015","754.1"
"25.1699","5752.15","0.209749","316.052","755.1"
"25.2033","5752.14","0.210027","316.051","756.1"
"25.2367","5753.33","0.210305","316.117","757.1"
"25.27","5753.77","0.210583","316.141","758.1"
"25.3033","5753.75","0.21086","316.14","759.1"
"25.3366","5754.51","0.211138","316.182","760.1"
"25.37","5754.98","0.211416","316.208","761.1"
"25.4033","5754.07","0.211694","316.158","762.1"
"25.4366","5754.75","0.211971","316.195","763.1"
"25.4699","5755.44","0.212249","316.233","764.1"
"25.5033","5756.23","0.212527","316.277","765.1"
"25.5366","5757.08","0.212805","316.323","766.1"
"25.5699","5757.61","0.213083","316.352","767.1"
"25.6032","5758","0.21336","316.374","768.1"
"25.6366","5758.41","0.213638","316.396","769.1"
"25.67","5759.17","0.213917","316.438","770.1"
"25.7033","5759.89","0.214194","316.477","771.1"
"25.7366","5759.81","0.214471","316.473","772.1"
"25.77","5760.7","0.21475","316.522","773.1"
"25.8034","5761.77","0.215028","316.581","774.1"
"25.8366","5761.97","0.215305","316.592","775.1"
"25.8699","5761.13","0.215582","316.546","776.1"
"25.9032","5761.83","0.21586","316.584","777.1"
"25.9366","5762.56","0.216138","316.624","778.1"
"25.97","5763.36","0.216416","316.668","779.1"
"26.0032","5763.59","0.216693","316.681","780.1"
"26.0366","5764.56","0.216971","316.734","781.1"
"26.07","5765.48","0.21725","316.784","782.1"
"26.1033","5765.51","0.217527","316.786","783.1"
"26.1366","5765.78","0.217805","316.801","784.1"
"26.1699","5766.34","0.218082","316.832","785.1"
"26.2033","5766.77","0.218361","316.855","786.1"
"26.2367","5767.77","0.218638","316.91","787.1"
"26.2699","5767.92","0.218916","316.919","788.1"
"26.3033","5768.75","0.219194","316.964","789.1"
"26.3367","5769.41","0.219472","317","790.1"
"26.37","5769.16","0.21975","316.987","791.1"
"26.4033","5769.18","0.220027","316.988","792.1"
"26.4366","5767.24","0.220305","316.881","793.1"
"26.47","5766.86","0.220583","316.861","794.1"
"26.5033","5766.6","0.220861","316.846","795.1"
"26.5366","5766.74","0.221138","316.854","796.1"
"26.5699","5767.32","0.221416","316.886","797.1"
"26.6033","5768.11","0.221694","316.929","798.1"
"26.6366","5768.88","0.221972","316.972","799.1"
"26.6699","5769.15","0.222249","316.986","800.1"
"26.7032","5769.69","0.222527","317.016","801.1"
"26.7366","5770.58","0.222805","317.065","802.1"
"26.77","5771.3","0.223083","317.104","803.1"
"26.8033","5771.52","0.22336","317.117","804.1"
"26.8366","5772.14","0.223638","317.151","805.1"
"26.87","5772.79","0.223916","317.186","806.1"
"26.9033","5772.99","0.224194","317.197","807.1"
"26.9366","5773.36","0.224472","317.218","808.1"
"26.9699","5773.47","0.224749","317.224","809.1"
"27.0033","5773.76","0.225027","317.239","810.1"
"27.0367","5774.84","0.225305","317.299","811.1"
"27.07","5775.25","0.225583","317.321","812.1"
"27.1033","5775.09","0.22586","317.313","813.1"
"27.1366","5774.26","0.226138","317.267","814.1"
"27.17","5774.96","0.226416","317.305","815.1"
"27.2033","5775.53","0.226694","317.337","816.1"
"27.2366","5775.45","0.226971","317.332","817.1"
"27.2699","5776.01","0.227249","317.363","818.1"
"27.3033","5776.95","0.227527","317.415","819.1"
"27.3366","5777.22","0.227805","317.429","820.1"
"27.37","5778.22","0.228083","317.485","821.1"
"27.4033","5778.42","0.22836","317.496","822.1"
"27.4367","5778.83","0.228638","317.518","823.1"
"27.47","5779.01","0.228916","317.528","824.1"
"27.5033","5779.6","0.229193","317.56","825.1"
"27.5366","5779.9","0.229471","317.5768","826.1"
"27.5699","5780.18","0.229749","317.592","827.1"
"27.6033","5779.59","0.230027","317.56","828.1"
"27.6366","5779.03","0.230305","317.529","829.1"
"27.6699","5779.63","0.230582","317.562","830.1"
"27.7033","5780.02","0.230861","317.583","831.1"
"27.7366","5780.93","0.231139","317.633","832.1"
"27.7699","5780.88","0.231416","317.631","833.1"
"27.8033","5780.21","0.231694","317.594","834.1"
"27.8366","5779.08","0.231972","317.532","835.1"
"27.87","5779.77","0.232249","317.57","836.1"
"27.9033","5780.33","0.232527","317.6","837.1"
"27.9366","5780.48","0.232804","317.609","838.1"
"27.9699","5781.51","0.233082","317.666","839.1"
"28.0033","5781.94","0.233361","317.6888","840.1"
"28.0366","5781.09","0.233638","317.642","841.1"
"28.0699","5781.88","0.233916","317.686","842.1"
"28.1033","5782.25","0.234194","317.706","843.1"
"28.1366","5783.05","0.234472","317.75","844.1"
"28.17","5783.93","0.23475","317.798","845.1"
"28.2033","5784.11","0.235027","317.808","846.1"
"28.2366","5784.18","0.235304","317.812","847.1"
"28.27","5784.69","0.235583","317.84","848.1"
"28.3033","5785.1","0.235861","317.863","849.1"
"28.3366","5785.49","0.236138","317.884","850.1"
"28.37","5785.71","0.236416","317.896","851.1"
"28.4034","5786.33","0.236694","317.93","852.1"
"28.4367","5787.19","0.236972","317.977","853.1"
"28.47","5786.85","0.237249","317.959","854.1"
"28.5033","5787.65","0.237527","318.003","855.1"
"28.5366","5788.52","0.237805","318.051","856.1"
"28.5699","5788.55","0.238083","318.052","857.1"
"28.6033","5788.62","0.23836","318.056","858.1"
"28.6366","5789.09","0.238638","318.082","859.1"
"28.6699","5789.56","0.238916","318.108","860.1"
"28.7033","5790.06","0.239194","318.135","861.1"
"28.7366","5790.04","0.239472","318.134","862.1"
"28.7699","5787.22","0.239749","317.979","863.1"
"28.8032","5787.88","0.240027","318.015","864.1"
"28.8366","5788.02","0.240305","318.023","865.1"
"28.8699","5788.56","0.240583","318.053","866.1"
"28.9032","5789.16","0.24086","318.0856","867.1"
"28.9366","5789.42","0.241138","318.1","868.1"
"28.97","5790.28","0.241416","318.1472","869.1"
"29.0033","5790.92","0.241694","318.1824","870.1"
"29.0366","5790.56","0.241971","318.163","871.1"
"29.0699","5791.07","0.242249","318.191","872.1"
"29.1033","5791.71","0.242528","318.226","873.1"
"29.1367","5791.83","0.242805","318.233","874.1"
"29.1699","5792.4","0.243082","318.264","875.1"
"29.2033","5792.72","0.243361","318.281","876.1"
"29.2367","5793.57","0.243639","318.328","877.1"
"29.27","5793.68","0.243916","318.334","878.1"
"29.3033","5793.79","0.244193","318.34","879.1"
"29.3366","5794.6","0.244471","318.385","880.1"
"29.37","5795.31","0.244749","318.424","881.1"
"29.4033","5795.9","0.245027","318.456","882.1"
"29.4366","5796.17","0.245305","318.471","883.1"
"29.47","5796.98","0.245583","318.516","884.1"
"29.5033","5797.17","0.245861","318.526","885.1"
"29.5366","5797.71","0.246138","318.556","886.1"
"29.57","5797.96","0.246416","318.569","887.1"
"29.6032","5796.31","0.246693","318.478","888.1"
"29.6366","5797.29","0.246972","318.532","889.1"
"29.67","5797.67","0.24725","318.553","890.1"
"29.7032","5797.82","0.247527","318.562","891.1"
"29.7366","5795.73","0.247805","318.446","892.1"
"29.77","5795.79","0.248083","318.45","893.1"
"29.8033","5796.59","0.248361","318.494","894.1"
"29.8366","5796.19","0.248638","318.472","895.1"
"29.8699","5793.3","0.248916","318.313","896.1"
"29.9033","5793.85","0.249194","318.343","897.1"
"29.9367","5794.51","0.249472","318.379","898.1"
"29.9699","5794.4","0.249749","318.374","899.1"
"30.0033","5795.08","0.250027","318.411","900.1"
"30.0366","5795.67","0.250305","318.443","901.1"
"30.07","5795.96","0.250583","318.459","902.1"
"30.1033","5796.39","0.25086","318.483","903.1"
"30.1366","5796.38","0.251138","318.482","904.1"
"30.1699","5793.62","0.251416","318.331","905.1"
"30.2033","5792.88","0.251694","318.29","906.1"
"30.2366","5792.49","0.251972","318.269","907.1"
"30.2699","5792.42","0.252249","318.265","908.1"
"30.3033","5790.89","0.252527","318.181","909.1"
"30.3367","5791.51","0.252805","318.215","910.1"
"30.37","5791.81","0.253083","318.231","911.1"
"30.4032","5790.93","0.25336","318.183","912.1"
"30.4366","5786.71","0.253638","317.951","913.1"
"30.47","5784.99","0.253916","317.856","914.1"
"30.5033","5782.33","0.254194","317.71","915.1"
"30.5367","5781.73","0.254472","317.677","916.1"
"30.57","5781.69","0.254749","317.675","917.1"
"30.6033","5782.47","0.255028","317.718","918.1"
"30.6366","5782.19","0.255305","317.703","919.1"
"30.6699","5781.7","0.255583","317.676","920.1"
"30.7032","5780.64","0.25586","317.617","921.1"
"30.7366","5773.87","0.256138","317.245","922.1"
"30.77","5771.51","0.256416","317.116","923.1"
"30.8033","5767.97","0.256694","316.921","924.1"
"30.8365","5764.98","0.256971","316.757","925.1"
"30.87","5759.87","0.257249","316.477","926.1"
"30.9033","5755.97","0.257527","316.262","927.1"
"30.9366","5747.35","0.257804","315.789","928.1"
"30.9699","5732.44","0.258082","314.969","929.1"
"31.0033","5725.41","0.25836","314.583","930.1"
"31.0367","5722.47","0.258639","314.421","931.1"
"31.07","5713.28","0.258916","313.916","932.1"
"31.1032","5708.24","0.259194","313.64","933.1"
"31.1366","5696.73","0.259471","313.007","934.1"
"31.17","5671.08","0.25975","311.598","935.1"
"31.2033","5640.08","0.260027","309.894","936.1"
"31.2366","5623.76","0.260305","308.998","937.1"
"31.2699","5604.56","0.260583","307.943","938.1"
"31.3033","5583.36","0.260861","306.778","939.1"
"31.3367","5569.18","0.261139","305.999","940.1"
"31.3699","5551.22","0.261416","305.012","941.1"
"31.4033","5537.97","0.261693","304.284","942.1"
"31.4366","5510.89","0.261972","302.796","943.1"
"31.47","5502.64","0.262249","302.343","944.1"
"31.5033","5486.94","0.262527","301.48","945.1"
"31.5366","5477.55","0.262805","300.964","946.1"
"31.57","5459.28","0.263083","299.961","947.1"
"31.6033","5450.3","0.263361","299.467","948.1"
"31.6366","5402.27","0.263638","296.828","949.1"
"31.6699","5338.1","0.263915","293.302","950.1"
"31.7033","5284.33","0.264194","290.348","951.1"
"31.7366","5217.15","0.264472","286.656","952.1"
"31.7701","4180.46","0.26475","229.696","953.1"
"31.8032","2277.71","0.265027","125.149","954.1"
"31.8366","2256.85","0.265305","124.003","955.1"
"31.87","2261.72","0.265583","124.27","956.1"
"31.9033","2267.22","0.265861","124.572","957.1"
"31.9366","2272.4","0.266138","124.857","958.1"
"31.9699","2252.56","0.266416","123.767","959.1"
"32.0033","2236.36","0.266694","122.877","960.1"
"32.0366","2226.73","0.266972","122.348","961.1"
"32.0699","2208.25","0.267249","121.333","962.1"
"32.1033","2061.33","0.267527","113.26","963.1"
"32.1367","2026.82","0.267805","111.364","964.1"
"32.1522","1601.19","0.267934","87.9775","964.566"