File: experimental_data/tensile_specimen_test_data/tensile_test_data/20250312/original_data/SSS 1 03-12-25 16 18 11 下午/数采：横梁, … - (实时值).csv
"文件路径: C:\Users\Lenovo\Desktop\Wayne\20250312\原始数据\SSS 1 03-12-25 16 18 11 下午\数采：横梁, … - (实时值).csv   "
"试验: 拉伸试验（UNIVER）      视频引伸计采集变形-W 1"
"试验运行: SSS 1"
"日期: 2025/3/12 11:09:03"
""
""
"横梁 ","力 ","视频引伸计变形 ","应变 ","时间 "
"mm","N","mm","mm/mm","sec"
"0.00679987","-6.91156","-0.0009","-1.8e-05","0.245"
"0.0204462","-6.96392","-0.0241","-0.000482","0.645"
"0.0338596","-6.38323","-0.0676","-0.001352","1.045"
"0.0471799","-5.67628","-0.1127","-0.002254","1.445"
"0.0605002","-4.69809","-0.1507","-0.003014","1.845"
"0.0738671","-3.26787","-0.1962","-0.003924","2.245"
"0.0871408","-1.03672","-0.2223","-0.004446","2.645"
"0.100508","1.07908","-0.2418","-0.004836","3.045"
"0.113781","3.71876","-0.2504","-0.005008","3.445"
"0.127148","6.12322","-0.2522","-0.005044","3.845"
"0.140515","8.85416","-0.252","-0.00504","4.245"
"0.153836","11.5045","-0.2488","-0.004976","4.645"
"0.167202","13.6975","-0.2432","-0.004864","5.045"
"0.180569","16.412","-0.2371","-0.004742","5.445"
"0.19389","19.0889","-0.2305","-0.00461","5.845"
"0.207163","21.4917","-0.2233","-0.004466","6.245"
"0.22053","24.1088","-0.2176","-0.004352","6.645"
"0.233804","26.4519","-0.2077","-0.004154","7.045"
"0.247124","29.3559","-0.2004","-0.004008","7.445"
"0.260491","31.7983","-0.1901","-0.003802","7.845"
"0.273811","34.1289","-0.1811","-0.003622","8.245"
"0.287178","36.7221","-0.1732","-0.003464","8.645"
"0.300545","39.3303","-0.1631","-0.003262","9.045"
"0.313865","41.9917","-0.1553","-0.003106","9.445"
"0.327232","44.4471","-0.1459","-0.002918","9.845"
"0.340506","46.901","-0.1345","-0.00269","10.245"
"0.353826","49.5261","-0.128","-0.00256","10.645"
"0.367147","52.0134","-0.1162","-0.002324","11.045"
"0.380467","54.6444","-0.1072","-0.002144","11.445"
"0.393787","57.1143","-0.0966","-0.001932","11.845"
"0.407154","59.6118","-0.0869","-0.001738","12.245"
"0.420521","62.1493","-0.0787","-0.001574","12.645"
"0.433841","64.8311","-0.0672","-0.001344","13.045"
"0.447255","67.2375","-0.0585","-0.00117","13.445"
"0.460528","69.6866","-0.0468","-0.000936","13.845"
"0.473849","72.2531","-0.0361","-0.000722","14.245"
"0.487216","74.7574","-0.0274","-0.000548","14.645"
"0.500489","77.0698","-0.0173","-0.000346","15.045"
"0.51381","79.7182","-0.0085","-0.00017","15.445"
"0.527177","82.3481","0.0021","4.2e-05","15.845"
"0.540497","84.8017","0.0127","0.000254","16.245"
"0.553817","87.329","0.0214","0.000428","16.645"
"0.567184","89.6348","0.0331","0.000662","17.045"
"0.580551","92.1866","0.0422","0.000844","17.445"
"0.593871","94.6752","0.0531","0.001062","17.845"
"0.607238","97.1253","0.0648","0.001296","18.245"
"0.620512","99.6699","0.0735","0.00147","18.645"
"0.633832","102.019","0.0847","0.001694","19.045"
"0.647152","104.691","0.0921","0.001842","19.445"
"0.660473","107.033","0.1041","0.002082","19.845"
"0.67384","109.455","0.1145","0.002244","20.245"
"0.68716","111.738","0.123","0.00246","20.645"
"0.70048","114.349","0.135","0.0027","21.045"
"0.713847","116.728","0.1436","0.002872","21.445"
"0.727214","119.258","0.1548","0.003096","21.845"
"0.740534","121.654","0.1637","0.003274","22.245"
"0.753855","124.306","0.1755","0.00351","22.645"
"0.767221","126.897","0.1867","0.003734","23.045"
"0.780495","129.112","0.1953","0.003906","23.445"
"0.793815","131.469","0.2065","0.00413","23.845"
"0.807136","134.038","0.2147","0.004294","24.245"
"0.820456","136.351","0.2269","0.004538","24.645"
"0.83387","138.797","0.2381","0.004762","25.045"
"0.84719","141.212","0.2474","0.004948","25.445"
"0.860557","143.676","0.2587","0.005174","25.845"
"0.873877","146.207","0.266","0.00532","26.245"
"0.887151","148.23","0.2779","0.005558","26.645"
"0.900518","150.846","0.2886","0.005772","27.045"
"0.913791","153.217","0.2978","0.005956","27.445"
"0.927112","155.771","0.3089","0.006178","27.845"
"0.940478","158.143","0.3173","0.006346","28.245"
"0.953799","160.523","0.3294","0.006588","28.645"
"0.967119","162.763","0.3396","0.006792","29.045"
"0.980532","165.381","0.3487","0.006974","29.445"
"0.993853","167.845","0.3597","0.007194","29.845"
"1.00717","170.289","0.3693","0.007386","30.245"
"1.02054","172.311","0.3798","0.007596","30.645"
"1.03386","174.783","0.3913","0.007826","31.045"
"1.04713","177.298","0.3997","0.007994","31.445"
"1.0605","179.631","0.4104","0.008208","31.845"
"1.07382","181.924","0.4211","0.008422","32.245"
"1.08714","184.414","0.432","0.00864","32.645"
"1.10051","186.789","0.444","0.00888","33.045"
"1.11388","189.101","0.4522","0.009044","33.445"
"1.1272","191.479","0.4638","0.009276","33.845"
"1.14052","193.928","0.472","0.00944","34.245"
"1.15384","196.059","0.4836","0.009672","34.645"
"1.16716","198.441","0.4913","0.009826","35.045"
"1.18052","200.989","0.5035","0.01007","35.445"
"1.1938","203.131","0.5159","0.010318","35.845"
"1.20716","205.433","0.5243","0.010486","36.245"
"1.22048","207.85","0.5349","0.010698","36.645"
"1.2338","210.341","0.5443","0.010886","37.045"
"1.24722","212.573","0.5561","0.011122","37.445"
"1.26049","214.811","0.5668","0.011336","37.845"
"1.27386","217.221","0.5752","0.011504","38.245"
"1.28723","219.551","0.5876","0.011752","38.645"
"1.30055","221.835","0.5964","0.011928","39.045"
"1.31387","224.314","0.6077","0.012154","39.445"
"1.32719","226.603","0.6184","0.012368","39.845"
"1.34051","228.596","0.6276","0.012552","40.245"
"1.35378","231.12","0.6397","0.012794","40.645"
"1.36715","233.466","0.6482","0.012964","41.045"
"1.38047","235.785","0.6604","0.013208","41.445"
"1.39383","238.153","0.6722","0.013444","41.845"
"1.4072","240.477","0.6805","0.01361","42.245"
"1.42052","242.623","0.6923","0.013846","42.645"
"1.43389","244.942","0.7006","0.014012","43.045"
"1.44716","246.121","0.6921","0.013842","43.445"
"1.46048","248.365","0.7033","0.014066","43.845"
"1.4738","250.718","0.7126","0.014252","44.245"
"1.48712","252.931","0.7232","0.014464","44.645"
"1.50044","255.223","0.7332","0.014664","45.045"
"1.51381","257.336","0.7423","0.014846","45.445"
"1.52722","259.96","0.7525","0.01505","45.845"
"1.5405","261.938","0.7639","0.015278","46.245"
"1.55391","264.31","0.7748","0.015496","46.645"
"1.56723","266.454","0.7823","0.015646","47.045"
"1.5805","268.533","0.7959","0.015918","47.445"
"1.59387","271.019","0.8026","0.016052","47.845"
"1.60715","273.063","0.8152","0.016304","48.245"
"1.62047","275.546","0.8257","0.016514","48.645"
"1.63383","277.565","0.835","0.0167","49.045"
"1.64715","279.825","0.8472","0.016944","49.445"
"1.66052","282.058","0.8546","0.017092","49.845"
"1.67389","283.48","0.8665","0.01733","50.245"
"1.68721","285.565","0.8708","0.017416","50.645"
"1.70053","288.111","0.8803","0.017606","51.045"
"1.71385","290.273","0.8924","0.017848","51.445"
"1.72717","292.351","0.9013","0.018026","51.845"
"1.74049","294.687","0.911","0.01822","52.245"
"1.75381","296.787","0.924","0.01848","52.645"
"1.76713","298.916","0.9314","0.018628","53.045"
"1.7805","301.294","0.943","0.01886","53.445"
"1.79382","298.367","0.9511","0.019022","53.845"
"1.80718","300.385","0.8813","0.017626","54.245"
"1.82055","302.66","0.8888","0.017776","54.645"
"1.83387","304.769","0.9001","0.018002","55.045"
"1.84719","306.916","0.9104","0.018208","55.445"
"1.86051","309.004","0.9182","0.018364","55.845"
"1.87383","311.131","0.9311","0.018622","56.245"
"1.88715","313.291","0.9423","0.018846","56.645"
"1.90052","315.153","0.9504","0.019008","57.045"
"1.91384","317.527","0.9596","0.019192","57.445"
"1.92711","319.491","0.9685","0.01937","57.845"
"1.94053","321.729","0.9783","0.019566","58.245"
"1.95385","323.707","0.9882","0.019764","58.645"
"1.96721","325.817","0.9979","0.019958","59.045"
"1.98053","327.809","1.0079","0.020158","59.445"
"1.99385","330.179","1.0172","0.020344","59.845"
"2.00717","332.195","1.0283","0.020566","60.245"
"2.02049","334.263","1.0357","0.020714","60.645"
"2.03377","336.304","1.0467","0.020934","61.045"
"2.04713","338.481","1.0582","0.021164","61.445"
"2.0605","340.705","1.0666","0.021332","61.845"
"2.07382","342.49","1.0779","0.021558","62.245"
"2.08719","344.517","1.0856","0.021712","62.645"
"2.10056","346.656","1.0968","0.021936","63.045"
"2.11383","348.709","1.108","0.02216","63.445"
"2.1272","350.928","1.1165","0.02233","63.845"
"2.14052","352.73","1.1271","0.022542","64.245"
"2.15379","355.167","1.1354","0.022708","64.645"
"2.16716","357.09","1.1465","0.02293","65.045"
"2.18048","359.042","1.1573","0.023146","65.445"
"2.19384","361.199","1.1657","0.023314","65.845"
"2.20716","363.172","1.1773","0.023546","66.245"
"2.22053","365.004","1.1857","0.023714","66.645"
"2.2339","367.327","1.1959","0.023918","67.045"
"2.24722","369.067","1.2076","0.024152","67.445"
"2.26054","371.321","1.2159","0.024318","67.845"
"2.27381","373.247","1.2263","0.024526","68.245"
"2.28713","375.198","1.2356","0.024712","68.645"
"2.30045","377.472","1.2465","0.02493","69.045"
"2.31382","379.338","1.2566","0.025132","69.445"
"2.32714","381.336","1.2653","0.025306","69.845"
"2.34046","383.11","1.2761","0.025522","70.245"
"2.35387","385.186","1.2842","0.025684","70.645"
"2.36719","387.1","1.2953","0.025906","71.045"
"2.38051","389.099","1.3042","0.026084","71.445"
"2.39388","390.966","1.3151","0.026302","71.845"
"2.4072","393.05","1.327","0.02654","72.245"
"2.42052","394.98","1.3343","0.026686","72.645"
"2.43384","396.918","1.3454","0.026908","73.045"
"2.44716","398.887","1.3556","0.027084","73.445"
"2.46048","400.759","1.363","0.02726","73.845"
"2.47385","402.532","1.3733","0.027466","74.245"
"2.48717","404.707","1.3818","0.027636","74.645"
"2.50054","406.625","1.3923","0.027846","75.045"
"2.5139","408.716","1.4011","0.028022","75.445"
"2.52718","410.303","1.4123","0.028246","75.845"
"2.5405","412.525","1.4226","0.028452","76.245"
"2.55382","414.439","1.4312","0.028624","76.645"
"2.56714","416.198","1.4423","0.028846","77.045"
"2.58051","418.138","1.4518","0.029036","77.445"
"2.59378","420.012","1.4637","0.029274","77.845"
"2.60715","421.811","1.4742","0.029484","78.245"
"2.62051","423.694","1.4827","0.029654","78.645"
"2.63383","425.491","1.4944","0.029888","79.045"
"2.6472","427.49","1.5027","0.030054","79.445"
"2.66057","429.297","1.5134","0.030268","79.845"
"2.67389","431.221","1.5248","0.030496","80.245"
"2.68716","433.139","1.5329","0.030658","80.645"
"2.70053","434.157","1.5272","0.030544","81.045"
"2.71385","436.075","1.5345","0.03069","81.445"
"2.72712","438.109","1.5453","0.030906","81.845"
"2.74054","439.926","1.5568","0.031136","82.245"
"2.75381","441.605","1.5643","0.031286","82.645"
"2.76718","443.582","1.5761","0.031522","83.045"
"2.78054","445.176","1.5846","0.031692","83.445"
"2.79386","447.036","1.5955","0.03191","83.845"
"2.80718","448.886","1.6059","0.032118","84.245"
"2.8205","450.924","1.614","0.03228","84.645"
"2.83382","452.646","1.6249","0.032498","85.045"
"2.84714","454.548","1.6333","0.032666","85.445"
"2.86046","456.324","1.6451","0.032902","85.845"
"2.87379","458.211","1.6526","0.033052","86.245"
"2.88715","459.951","1.6643","0.033286","86.645"
"2.90052","461.799","1.6753","0.033506","87.045"
"2.91384","463.368","1.683","0.03366","87.445"
"2.92725","465.36","1.6942","0.033884","87.845"
"2.94053","466.941","1.7025","0.03405","88.245"
"2.95385","459.758","1.7117","0.034234","88.645"
"2.96721","461.482","1.7196","0.034392","89.045"
"2.98049","463.208","1.7285","0.03457","89.445"
"2.99381","464.86","1.7381","0.034762","89.845"
"3.00717","466.657","1.7461","0.034922","90.245"
"3.02049","468.54","1.7577","0.035154","90.645"
"3.03381","470.052","1.7687","0.035374","91.045"
"3.04718","471.754","1.7764","0.035528","91.445"
"3.0605","473.501","1.7872","0.035744","91.845"
"3.07382","475.365","1.7947","0.035894","92.245"
"3.08719","477.071","1.8054","0.036108","92.645"
"3.10046","478.464","1.8164","0.036328","93.045"
"3.11383","480.37","1.8249","0.036498","93.445"
"3.12715","482.221","1.835","0.0367","93.845"
"3.14047","483.784","1.8436","0.036872","94.245"
"3.15384","485.479","1.8543","0.037086","94.645"
"3.16716","487.027","1.8648","0.037296","95.045"
"3.18052","488.796","1.8727","0.037454","95.445"
"3.19389","490.405","1.8833","0.037666","95.845"
"3.20721","492.213","1.8909","0.037818","96.245"
"3.22053","493.791","1.9023","0.038046","96.645"
"3.2339","495.26","1.9109","0.038218","97.045"
"3.24717","497.274","1.9217","0.038434","97.445"
"3.26049","498.763","1.9322","0.038644","97.845"
"3.27381","500.477","1.941","0.03882","98.245"
"3.28713","502.194","1.9512","0.039024","98.645"
"3.30045","503.868","1.9597","0.039194","99.045"
"3.31387","505.265","1.97","0.0394","99.445"
"3.32719","507.056","1.9806","0.039612","99.845"
"3.34055","508.777","1.9893","0.039786","100.245"
"3.35387","510.147","1.9999","0.039998","100.645"
"3.3672","512.044","2.9469","0.058938","101.045"
"3.38052","513.511","2.9554","0.059108","101.445"
"3.39384","515.126","2.9688","0.059376","101.845"
"3.40716","516.699","2.9757","0.059514","102.245"
"3.42048","518.169","2.9855","0.05971","102.645"
"3.43384","519.638","2.9917","0.059834","103.045"
"3.44712","521.571","3.0032","0.060064","103.445"
"3.46053","523.239","3.0149","0.060298","103.845"
"3.4739","524.751","3.0245","0.06049","104.245"
"3.48717","526.335","3.0339","0.060678","104.645"
"3.50058","527.659","3.0416","0.060832","105.045"
"3.51386","529.281","3.0509","0.061018","105.445"
"3.52713","530.895","3.0603","0.061206","105.845"
"3.5405","532.389","3.0699","0.061398","106.245"
"3.55377","533.905","3.0792","0.061584","106.645"
"3.56714","535.565","3.0876","0.061752","107.045"
"3.58051","536.962","3.099","0.06198","107.445"
"3.59387","538.352","3.1072","0.062144","107.845"
"3.60719","539.912","3.1165","0.06233","108.245"
"3.62051","541.423","3.1288","0.062576","108.645"
"3.63388","543.034","3.1345","0.06269","109.045"
"3.6472","544.789","3.1456","0.062912","109.445"
"3.66052","546.078","3.154","0.06308","109.845"
"3.67379","547.346","3.1636","0.063272","110.245"
"3.68716","549.065","3.1749","0.063498","110.645"
"3.70048","550.687","3.1831","0.063662","111.045"
"3.7138","552.099","3.1921","0.063842","111.445"
"3.72722","553.476","3.1986","0.063972","111.845"
"3.74054","554.864","3.2103","0.064206","112.245"
"3.75386","556.467","3.2207","0.064414","112.645"
"3.76722","557.906","3.2301","0.064602","113.045"
"3.78054","559.355","3.2407","0.064814","113.445"
"3.79382","560.749","3.2488","0.064976","113.845"
"3.80718","562.16","3.2593","0.065186","114.245"
"3.8205","563.827","3.2691","0.065382","114.645"
"3.83378","564.924","3.2758","0.065516","115.045"
"3.84719","566.504","3.2874","0.065748","115.445"
"3.86047","568.114","3.2934","0.065868","115.845"
"3.87383","569.249","3.3043","0.066086","116.245"
"3.88725","570.941","3.3162","0.066324","116.645"
"3.90052","572.05","3.3236","0.066472","117.045"
"3.91389","573.633","3.3333","0.066666","117.445"
"3.92716","574.839","3.342","0.06684","117.845"
"3.94048","576.46","3.353","0.06706","118.245"
"3.9538","577.573","3.3639","0.067278","118.645"
"3.96712","579.203","3.3708","0.067416","119.045"
"3.98044","580.302","3.3794","0.067588","119.445"
"3.99381","581.611","3.3874","0.067748","119.845"
"4.00718","583.009","3.3985","0.06797","120.245"
"4.0205","584.279","3.4094","0.068188","120.645"
"4.03391","585.906","3.4152","0.068304","121.045"
"4.04723","587.014","3.4273","0.068546","121.445"
"4.0605","588.518","3.4348","0.068696","121.845"
"4.07387","589.844","3.4464","0.068928","122.245"
"4.08714","591.103","3.4559","0.069118","122.645"
"4.10046","592.61","3.4645","0.06929","123.045"
"4.11383","593.728","3.4758","0.069516","123.445"
"4.12715","595.137","3.4803","0.069606","123.845"
"4.14052","596.386","3.4935","0.06987","124.245"
"4.15388","597.897","3.501","0.07002","124.645"
"4.16721","599.17","3.5111","0.070222","125.045"
"4.18053","600.312","3.5202","0.070404","125.445"
"4.19385","601.897","3.5271","0.070542","125.845"
"4.20717","603.093","3.5376","0.070752","126.245"
"4.22049","604.129","3.5453","0.070906","126.645"
"4.23381","605.45","3.5558","0.071116","127.045"
"4.24708","606.548","3.5673","0.071346","127.445"
"4.26049","608.015","3.5767","0.071534","127.845"
"4.27381","609.193","3.585","0.0717","128.245"
"4.28718","610.591","3.5933","0.071866","128.645"
"4.30059","611.831","3.6044","0.072088","129.045"
"4.31387","613.184","3.6136","0.072272","129.445"
"4.32719","614.382","3.6207","0.072414","129.845"
"4.34056","615.528","3.6334","0.072668","130.245"
"4.35383","616.544","3.6413","0.072826","130.645"
"4.36715","617.98","3.6502","0.073004","131.045"
"4.38047","619.122","3.6604","0.073208","131.445"
"4.39384","620.181","3.6691","0.073382","131.845"
"4.40716","621.582","3.6788","0.073576","132.245"
"4.42052","622.748","3.6885","0.07377","132.645"
"4.43384","623.991","3.6969","0.073938","133.045"
"4.44716","625.13","3.7069","0.074138","133.445"
"4.46053","626.516","3.7164","0.074328","133.845"
"4.4738","627.614","3.7268","0.074536","134.245"
"4.48717","628.888","3.734","0.07468","134.645"
"4.50049","629.976","3.7428","0.074856","135.045"
"4.51381","631.145","3.7537","0.075074","135.445"
"4.52713","632.362","3.7639","0.075278","135.845"
"4.54045","633.49","3.7718","0.075436","136.245"
"4.55382","634.558","3.78","0.0756","136.645"
"4.56723","635.877","3.7876","0.075752","137.045"
"4.58055","637.05","3.7976","0.075952","137.445"
"4.59387","638.178","3.8065","0.07613","137.845"
"4.60719","639.257","3.8183","0.076366","138.245"
"4.62051","640.332","3.8261","0.076522","138.645"
"4.63383","641.283","3.8381","0.076762","139.045"
"4.6472","642.519","3.8463","0.076926","139.445"
"4.66048","643.618","3.8571","0.077142","139.845"
"4.6738","644.76","3.8648","0.077296","140.245"
"4.68716","645.954","3.8745","0.07749","140.645"
"4.70048","647.033","3.8839","0.077678","141.045"
"4.71385","648.195","3.8899","0.077798","141.445"
"4.72722","649.261","3.9021","0.078042","141.845"
"4.74054","650.401","3.9147","0.078294","142.245"
"4.75381","651.479","3.9242","0.078484","142.645"
"4.76713","652.545","3.934","0.07868","143.045"
"4.78045","653.472","3.9413","0.078826","143.445"
"4.79382","654.676","3.9512","0.079024","143.845"
"4.80714","655.84","3.9587","0.079168","144.245"
"4.82046","656.936","3.9683","0.079366","144.645"
"4.83392","657.632","3.9779","0.079558","145.045"
"4.84719","658.766","3.9843","0.079686","145.445"
"4.86051","659.899","3.9954","0.079908","145.845"
"4.87393","660.847","4.0053","0.080106","146.245"
"4.8872","661.981","4.0135","0.08027","146.645"
"4.90052","663.088","4.024","0.08048","147.045"
"4.91384","664.217","4.0334","0.080668","147.445"
"4.92716","665.068","4.0444","0.080888","147.845"
"4.94043","665.943","4.051","0.08102","148.245"
"4.95385","667.156","4.0622","0.081244","148.645"
"4.96717","667.93","4.0717","0.081434","149.045"
"4.98049","669.093","4.0805","0.08161","149.445"
"4.9939","669.942","4.0907","0.081814","149.845"
"5.00718","670.789","4.0982","0.081964","150.245"
"5.0205","671.619","4.1076","0.082152","150.645"
"5.03386","672.684","4.1162","0.082324","151.045"
"5.04714","673.565","4.1245","0.08249","151.445"
"5.0605","674.646","4.1352","0.082704","151.845"
"5.07378","675.631","4.1427","0.082854","152.245"
"5.08714","676.699","4.1525","0.08305","152.645"
"5.10051","677.271","4.1635","0.08327","153.045"
"5.11383","678.419","4.1717","0.083434","153.445"
"5.1272","679.404","4.1819","0.083638","153.845"
"5.14056","680.434","4.1899","0.083798","154.245"
"5.15389","681.222","4.1992","0.083984","154.645"
"5.16716","682.404","4.2105","0.08421","155.045"
"5.18053","683.393","4.2191","0.084382","155.445"
"5.1938","684.136","4.2281","0.084562","155.845"
"5.20712","685.111","4.2359","0.084718","156.245"
"5.22049","686.081","4.2461","0.084922","156.645"
"5.23381","687.058","4.2553","0.085106","157.045"
"5.24717","687.808","4.2644","0.085288","157.445"
"5.26054","688.807","4.2737","0.085474","157.845"
"5.27386","689.678","4.2824","0.085648","158.245"
"5.28723","690.646","4.2933","0.085866","158.645"
"5.3005","691.642","4.3031","0.086062","159.045"
"5.31382","692.497","4.311","0.08622","159.445"
"5.32714","693.253","4.3208","0.086416","159.845"
"5.34046","694.242","4.3294","0.086588","160.245"
"5.35378","694.861","4.3391","0.086782","160.645"
"5.36715","695.857","4.3497","0.086994","161.045"
"5.38052","696.89","4.3572","0.087144","161.445"
"5.39384","697.668","4.3678","0.087356","161.845"
"5.40725","698.807","4.3746","0.087492","162.245"
"5.42052","699.453","4.3861","0.087722","162.645"
"5.43384","700.327","4.3926","0.087852","163.045"
"5.44721","701.091","4.403","0.08806","163.445"
"5.46049","702.017","4.412","0.08824","163.845"
"5.47381","702.887","4.4206","0.088412","164.245"
"5.48717","703.485","4.431","0.08862","164.645"
"5.50049","704.39","4.4372","0.088744","165.045"
"5.51381","705.379","4.4491","0.088982","165.445"
"5.52723","706.169","4.4609","0.089218","165.845"
"5.54055","706.943","4.4674","0.089348","166.245"
"5.55387","707.692","4.4761","0.089522","166.645"
"5.56723","708.593","4.4847","0.089694","167.045"
"5.58051","709.256","4.4929","0.089858","167.445"
"5.59383","710.149","4.5031","0.090062","167.845"
"5.60715","710.704","4.5104","0.090208","168.245"
"5.62042","711.665","4.5195","0.09039","168.645"
"5.63384","712.658","4.5283","0.090566","169.045"
"5.64716","713.346","4.5407","0.090814","169.445"
"5.66052","713.941","4.55","0.091","169.845"
"5.67384","714.797","4.5586","0.091172","170.245"
"5.68716","715.462","4.5681","0.091362","170.645"
"5.70053","716.203","4.5744","0.091488","171.045"
"5.7139","716.984","4.5866","0.091732","171.445"
"5.72722","717.622","4.5952","0.091904","171.845"
"5.74044","718.344","4.6035","0.09207","172.245"
"5.75386","719.193","4.6123","0.092246","172.645"
"5.76713","719.957","4.6209","0.092418","173.045"
"5.7805","720.684","4.6296","0.092592","173.445"
"5.79387","721.381","4.6398","0.092796","173.845"
"5.80719","722.204","4.6492","0.092984","174.245"
"5.82055","722.751","4.6606","0.093212","174.645"
"5.83387","723.596","4.6671","0.093342","175.045"
"5.84715","724.34","4.6776","0.093552","175.445"
"5.86051","725.295","4.6895","0.09379","175.845"
"5.87383","726.009","4.6959","0.093918","176.245"
"5.88711","726.611","4.706","0.09412","176.645"
"5.90047","727.411","4.7135","0.09427","177.045"
"5.91379","727.88","4.7236","0.094472","177.445"
"5.92711","728.745","4.7298","0.094596","177.845"
"5.94053","729.493","4.7411","0.094822","178.245"
"5.9539","730.095","4.7492","0.094984","178.645"
"5.96722","730.835","4.7577","0.095154","179.045"
"5.98058","731.593","4.7684","0.095368","179.445"
"5.99386","732.004","4.7758","0.095516","179.845"
"6.00718","732.883","4.788","0.09576","180.245"
"6.0205","733.518","4.7973","0.095946","180.645"
"6.03382","734.285","4.8043","0.096086","181.045"
"6.04714","734.921","4.8161","0.096322","181.445"
"6.0605","735.464","4.8219","0.096438","181.845"
"6.07387","736.036","4.8335","0.09667","182.245"
"6.08719","736.736","4.8425","0.09685","182.645"
"6.10056","737.511","4.8506","0.097012","183.045"
"6.11383","738.212","4.8596","0.097192","183.445"
"6.12715","738.819","4.865","0.0973","183.845"
"6.14052","739.265","4.8769","0.097538","184.245"
"6.15379","740.069","4.884","0.09768","184.645"
"6.16716","740.645","4.8956","0.097912","185.045"
"6.18048","741.191","4.9064","0.098128","185.445"
"6.1938","741.643","4.9133","0.098266","185.845"
"6.20721","742.385","4.9246","0.098492","186.245"
"6.22053","742.927","4.933","0.09866","186.645"
"6.2339","743.432","4.9408","0.098816","187.045"
"6.24722","743.841","4.9502","0.099004","187.445"
"6.26054","744.575","4.9577","0.099154","187.845"
"6.27382","745.213","4.9654","0.099308","188.245"
"6.28718","745.733","4.9738","0.099476","188.645"
"6.3005","746.459","4.9832","0.099664","189.045"
"6.31382","746.843","4.9954","0.099908","189.445"
"6.32719","747.365","5.003","0.10006","189.845"
"6.34051","748.245","5.0121","0.100242","190.245"
"6.35383","748.563","5.0197","0.100394","190.645"
"6.3672","749.272","5.0315","0.10063","191.045"
"6.38052","749.908","5.0409","0.100818","191.445"
"6.39388","750.712","5.0495","0.10099","191.845"
"6.40716","751.108","5.0577","0.101154","192.245"
"6.42048","751.588","5.0663","0.101326","192.645"
"6.4338","752.116","5.076","0.10152","193.045"
"6.44712","752.809","5.084","0.10168","193.445"
"6.46049","753.429","5.0928","0.101856","193.845"
"6.47385","753.777","5.1025","0.10205","194.245"
"6.48722","754.527","5.1125","0.10225","194.645"
"6.50049","755.033","5.1214","0.102428","195.045"
"6.51386","755.586","5.1307","0.102614","195.445"
"6.52723","756.163","5.1376","0.102752","195.845"
"6.5405","756.646","5.1493","0.102986","196.245"
"6.55387","757.121","5.1586","0.103172","196.645"
"6.56714","757.778","5.1653","0.103306","197.045"
"6.58046","758.285","5.1741","0.103482","197.445"
"6.59378","758.58","5.1835","0.10367","197.845"
"6.60715","759.078","5.1936","0.103872","198.245"
"6.62052","759.832","5.2018","0.104036","198.645"
"6.63388","760.075","5.2108","0.104216","199.045"
"6.6472","760.885","5.2198","0.104396","199.445"
"6.66052","761.113","5.2281","0.104562","199.845"
"6.67384","761.684","5.2384","0.104768","200.245"
"6.68716","762.259","5.2446","0.104892","200.645"
"6.70048","762.687","5.2549","0.105098","201.045"
"6.7138","763.132","5.2602","0.105204","201.445"
"6.72712","763.675","5.2732","0.105464","201.845"
"6.74049","764.225","5.2838","0.105676","202.245"
"6.75381","764.949","5.2888","0.105776","202.645"
"6.76718","765.301","5.2987","0.105974","203.045"
"6.78059","765.777","5.307","0.10614","203.445"
"6.79387","766.365","5.3149","0.106298","203.845"
"6.80719","766.767","5.3267","0.106534","204.245"
"6.82051","767.368","5.3334","0.106668","204.645"
"6.83383","767.708","5.3462","0.106924","205.045"
"6.84715","768.14","5.3516","0.107032","205.445"
"6.86047","768.657","5.3613","0.107226","205.845"
"6.87383","769.296","5.3702","0.107404","206.245"
"6.88715","769.667","5.3772","0.107544","206.645"
"6.90057","770.102","5.3906","0.107812","207.045"
"6.91384","770.322","5.3966","0.107932","207.445"
"6.92721","770.999","5.4073","0.108146","207.845"
"6.94053","771.204","5.4135","0.10827","208.245"
"6.95385","771.585","5.4216","0.108432","208.645"
"6.96717","772.294","5.4337","0.108674","209.045"
"6.98049","772.891","5.4396","0.108792","209.445"
"6.99381","773.258","5.4503","0.109006","209.845"
"7.00718","773.777","5.461","0.10922","210.245"
"7.0205","774.098","5.4691","0.109382","210.645"
"7.03382","774.613","5.4768","0.109536","211.045"
"7.04718","774.776","5.4849","0.109698","211.445"
"7.06055","775.422","5.4943","0.109886","211.845"
"7.07383","775.803","5.506","0.110034","212.245"
"7.08719","776.138","5.5119","0.110238","212.645"
"7.10051","776.562","5.5219","0.110438","213.045"
"7.11379","776.809","5.5282","0.110564","213.445"
"7.12715","777.222","5.5398","0.110796","213.845"
"7.14047","777.634","5.5477","0.110954","214.245"
"7.15379","777.879","5.5543","0.111086","214.645"
"7.16716","778.186","5.5648","0.111296","215.045"
"7.18053","778.709","5.5706","0.111412","215.445"
"7.19389","779.067","5.5824","0.111648","215.845"
"7.20721","779.475","5.5892","0.111784","216.245"
"7.22053","780.08","5.5981","0.111962","216.645"
"7.23385","780.101","5.6117","0.112234","217.045"
"7.24718","780.673","5.6162","0.112324","217.445"
"7.26045","781.094","5.6248","0.112496","217.845"
"7.27377","781.159","5.6324","0.112648","218.245"
"7.28714","781.841","5.6433","0.112866","218.645"
"7.30046","782.21","5.6521","0.113042","219.045"
"7.31387","782.603","5.6601","0.113202","219.445"
"7.32719","782.677","5.6673","0.113346","219.845"
"7.34051","783.073","5.6765","0.11353","220.245"
"7.35388","783.766","5.6875","0.11375","220.645"
"7.3672","784.17","5.6975","0.11395","221.045"
"7.38052","784.377","5.7025","0.11405","221.445"
"7.39384","784.87","5.7091","0.114182","221.845"
"7.40716","785.032","5.7175","0.11435","222.245"
"7.42048","785.378","5.7294","0.114588","222.645"
"7.43385","785.815","5.7353","0.114706","223.045"
"7.44721","786.331","5.7455","0.11491","223.445"
"7.46053","786.521","5.7566","0.115132","223.845"
"7.4739","786.884","5.7642","0.115284","224.245"
"7.48717","787.081","5.7723","0.115446","224.645"
"7.50049","787.389","5.7808","0.115616","225.045"
"7.51381","787.908","5.7896","0.115792","225.445"
"7.52713","788.147","5.8017","0.116034","225.845"
"7.5405","788.506","5.8084","0.116168","226.245"
"7.55378","788.726","5.8169","0.116338","226.645"
"7.56714","789.237","5.8227","0.116454","227.045"
"7.58051","789.659","5.8328","0.116656","227.445"
"7.59383","789.855","5.8404","0.116808","227.845"
"7.6072","790.311","5.8488","0.116976","228.245"
"7.62056","790.579","5.8588","0.117176","228.645"
"7.63388","790.728","5.8672","0.11732","229.045"
"7.64716","791.189","5.8754","0.117508","229.445"
"7.66052","791.507","5.8849","0.117698","229.845"
"7.6738","792.092","5.8905","0.11781","230.245"
"7.68712","792.198","5.902","0.11804","230.645"
"7.70053","792.604","5.9106","0.118212","231.045"
"7.7138","792.639","5.9182","0.118364","231.445"
"7.72717","793.118","5.9274","0.118548","231.845"
"7.74054","793.506","5.9366","0.118732","232.245"
"7.75386","793.664","5.9433","0.118866","232.645"
"7.76723","793.778","5.9508","0.119016","233.045"
"7.7805","794.272","5.96","0.1192","233.445"
"7.79382","794.552","5.9702","0.119404","233.845"
"7.80714","794.785","5.9775","0.11955","234.245"
"7.82046","795.01","5.9864","0.119728","234.645"
"7.83378","795.379","5.9933","0.119866","235.045"
"7.84715","795.776","6.0043","0.120086","235.445"
"7.86051","795.858","6.015","0.1203","235.845"
"7.87384","796.137","6.022","0.12044","236.245"
"7.88725","796.64","6.0305","0.12061","236.645"
"7.90057","796.707","6.0367","0.120734","237.045"
"7.91384","797.115","6.046","0.12092","237.445"
"7.92721","797.301","6.0542","0.121084","237.845"
"7.94048","797.747","6.061","0.12122","238.245"
"7.9538","797.902","6.0706","0.121412","238.645"
"7.96712","798.179","6.0768","0.121536","239.045"
"7.98049","798.417","6.0855","0.12171","239.445"
"7.99381","798.556","6.0954","0.121908","239.845"
"8.00718","798.966","6.104","0.12208","240.245"
"8.02054","799.268","6.114","0.12228","240.645"
"8.03387","799.467","6.1199","0.122398","241.045"
"8.04723","799.659","6.1287","0.122574","241.445"
"8.06046","800.021","6.1395","0.12279","241.845"
"8.07383","800.345","6.1478","0.122956","242.245"
"8.08715","800.499","6.1583","0.123166","242.645"
"8.10042","800.833","6.1624","0.123248","243.045"
"8.11383","800.839","6.17","0.1234","243.445"
"8.12715","801.26","6.1772","0.123544","243.845"
"8.14052","801.413","6.1855","0.12371","244.245"
"8.15389","801.604","6.1954","0.123908","244.645"
"8.16721","801.99","6.2013","0.124026","245.045"
"8.18053","801.965","6.2141","0.124282","245.445"
"8.1939","802.12","6.2198","0.124396","245.845"
"8.20717","802.599","6.2304","0.124608","246.245"
"8.22049","802.722","6.2354","0.124708","246.645"
"8.23381","803.084","6.2474","0.124948","247.045"
"8.24713","803.45","6.2554","0.125108","247.445"
"8.26045","803.745","6.261","0.12522","247.845"
"8.27386","803.812","6.27","0.1254","248.245"
"8.28714","803.915","6.2804","0.125608","248.645"
"8.30055","804.35","6.2864","0.125728","249.045"
"8.31387","804.453","6.2941","0.125882","249.445"
"8.32714","804.584","6.3029","0.126058","249.845"
"8.34051","804.983","6.3115","0.12623","250.245"
"8.35383","805.128","6.3223","0.126446","250.645"
"8.36715","805.172","6.3285","0.12657","251.045"
"8.38047","805.53","6.3384","0.126768","251.445"
"8.39384","805.766","6.3469","0.126938","251.845"
"8.40711","806.075","6.3566","0.127132","252.245"
"8.42053","806.306","6.3612","0.127224","252.645"
"8.43389","806.424","6.3731","0.127462","253.045"
"8.44721","806.75","6.3798","0.127596","253.445"
"8.46058","806.787","6.3872","0.127744","253.845"
"8.47385","806.933","6.3929","0.127858","254.245"
"8.48713","807.087","6.4021","0.128042","254.645"
"8.50049","807.522","6.4094","0.128188","255.045"
"8.51377","807.63","6.4204","0.128408","255.445"
"8.52714","807.779","6.4274","0.128548","255.845"
"8.5405","807.873","6.4358","0.128716","256.245"
"8.55387","808.405","6.4439","0.128878","256.645"
"8.56719","808.334","6.4553","0.129106","257.045"
"8.58056","808.404","6.4622","0.129244","257.445"
"8.59388","808.638","6.4694","0.129388","257.845"
"8.6072","808.988","6.4788","0.129576","258.245"
"8.62052","808.952","6.4837","0.129674","258.645"
"8.63379","809.139","6.4913","0.129826","259.045"
"8.64716","809.271","6.5006","0.130012","259.445"
"8.66048","809.481","6.5071","0.130142","259.845"
"8.6738","809.65","6.5169","0.130338","260.245"
"8.68721","809.702","6.5229","0.130458","260.645"
"8.70053","809.938","6.5317","0.130634","261.045"
"8.71385","809.937","6.5377","0.130754","261.445"
"8.72722","810.321","6.548","0.13096","261.845"
"8.74049","810.421","6.5592","0.131184","262.245"
"8.75381","810.499","6.5636","0.131272","262.645"
"8.76718","810.961","6.575","0.1315","263.045"
"8.7805","810.993","6.5807","0.131614","263.445"
"8.79377","811.184","6.5903","0.131806","263.845"
"8.80719","811.194","6.5983","0.131966","264.245"
"8.82051","811.314","6.6048","0.132096","264.645"
"8.83387","811.467","6.6113","0.132226","265.045"
"8.84724","811.557","6.622","0.132388","265.445"
"8.86052","811.777","6.6274","0.132548","265.845"
"8.87388","811.905","6.6375","0.13275","266.245"
"8.88716","811.936","6.6454","0.132908","266.645"
"8.90048","812.226","6.6529","0.133058","267.045"
"8.9138","812.222","6.6603","0.133206","267.445"
"8.92712","812.278","6.6691","0.133382","267.845"
"8.94048","812.545","6.6787","0.133574","268.245"
"8.95385","812.655","6.6855","0.13371","268.645"
"8.96717","812.759","6.6924","0.133848","269.045"
"8.98049","812.961","6.7009","0.134018","269.445"
"8.99391","813.032","6.7088","0.134176","269.845"
"9.00722","813.355","6.7174","0.134348","270.245"
"9.0205","813.385","6.7245","0.13449","270.645"
"9.03387","813.517","6.7317","0.134634","271.045"
"9.04714","813.515","6.7383","0.134766","271.445"
"9.06046","813.742","6.746","0.13492","271.845"
"9.07383","813.852","6.7575","0.13515","272.245"
"9.08715","813.903","6.7652","0.135304","272.645"
"9.10051","814.084","6.772","0.13544","273.045"
"9.11388","814.235","6.7811","0.135622","273.445"
"9.1272","814.101","6.787","0.13574","273.845"
"9.14052","814.571","6.7963","0.135896","274.245"
"9.15384","814.584","6.8031","0.136062","274.645"
"9.16716","814.539","6.8121","0.136242","275.045"
"9.18048","814.74","6.8176","0.136352","275.445"
"9.1938","814.886","6.8282","0.136564","275.845"
"9.20708","814.758","6.8359","0.136718","276.245"
"9.22049","814.891","6.8418","0.136836","276.645"
"9.23381","815.336","6.8495","0.13699","277.045"
"9.24718","815.315","6.8559","0.137118","277.445"
"9.26059","815.35","6.8653","0.137306","277.845"
"9.27386","815.422","6.8735","0.137408","278.245"
"9.28723","815.515","6.8813","0.137626","278.645"
"9.30055","815.61","6.8897","0.137794","279.045"
"9.31382","815.549","6.8954","0.137908","279.445"
"9.32715","815.939","6.905","0.1381","279.845"
"9.34051","815.904","6.9115","0.13818","280.245"
"9.35383","816.006","6.9173","0.138346","280.645"
"9.36715","816.085","6.9268","0.138536","281.045"
"9.38057","816.172","6.9328","0.138656","281.445"
"9.39384","816.373","6.9415","0.13883","281.845"
"9.40721","816.266","6.9477","0.138954","282.245"
"9.42053","816.443","6.9556","0.139112","282.645"
"9.4338","816.639","6.9667","0.139334","283.045"
"9.44717","816.468","6.9728","0.139456","283.445"
"9.46044","816.486","6.9811","0.139622","283.845"
"9.47376","816.869","6.9879","0.139758","284.245"
"9.48713","817.105","6.9965","0.13993","284.645"
"9.5005","817.002","7.0043","0.140086","285.045"
"9.51382","817.067","7.0098","0.140196","285.445"
"9.52723","817.095","7.0187","0.140374","285.845"
"9.54055","817.101","7.0232","0.140464","286.245"
"9.55387","817.203","7.0325","0.14065","286.645"
"9.56724","817.289","7.0408","0.140816","287.045"
"9.58051","817.273","7.0475","0.14095","287.445"
"9.59383","817.393","7.0531","0.141062","287.845"
"9.6072","817.464","7.0607","0.141214","288.245"
"9.62047","817.478","7.0696","0.141392","288.645"
"9.63379","817.547","7.0762","0.141524","289.045"
"9.64716","817.852","7.0844","0.141688","289.445"
"9.66048","817.731","7.0964","0.141928","289.845"
"9.67385","817.827","7.11","0.1422","290.245"
"9.68721","817.878","7.1233","0.142466","290.645"
"9.70053","817.841","7.1293","0.142586","291.045"
"9.71385","818.052","7.1439","0.142878","291.445"
"9.72717","817.756","7.1583","0.143166","291.845"
"9.74045","817.997","7.1694","0.143388","292.245"
"9.75381","817.991","7.1841","0.143682","292.645"
"9.76713","818.068","7.1942","0.143884","293.045"
"9.78045","818.031","7.2078","0.144156","293.445"
"9.79387","818.193","7.2207","0.144414","293.845"
"9.80719","818.369","7.2308","0.144616","294.245"
"9.82051","818.173","7.2456","0.144912","294.645"
"9.83392","818.073","7.2561","0.145122","295.045"
"9.8472","818.31","7.2709","0.145418","295.445"
"9.86052","818.184","7.282","0.14564","295.845"
"9.87384","818.233","7.2929","0.145858","296.245"
"9.88716","817.971","7.3047","0.146094","296.645"
"9.90043","818.211","7.3211","0.146422","297.045"
"9.91384","818.375","7.3329","0.146658","297.445"
"9.92716","818.452","7.3446","0.146892","297.845"
"9.94053","818.486","7.3566","0.147132","298.245"
"9.9539","818.545","7.3685","0.14737","298.645"
"9.96717","818.522","7.3792","0.147584","299.045"
"9.98049","818.596","7.3944","0.147888","299.445"
"9.99386","818.474","7.4091","0.148182","299.845"
"10.0071","818.582","7.4169","0.148338","300.245"
"10.0205","818.412","7.4323","0.148646","300.645"
"10.0338","818.552","7.4406","0.148812","301.045"
"10.0471","818.553","7.4562","0.149124","301.445"
"10.0606","818.672","7.466","0.14932","301.845"
"10.0739","818.671","7.4788","0.149576","302.245"
"10.0872","818.592","7.4944","0.149888","302.645"
"10.1006","818.64","7.5035","0.15007","303.045"
"10.1139","818.695","7.5201","0.150402","303.445"
"10.1272","818.411","7.5247","0.150494","303.845"
"10.1405","818.523","7.5442","0.150884","304.245"
"10.1538","818.624","7.5549","0.151098","304.645"
"10.1671","818.496","7.5649","0.151298","305.045"
"10.1805","818.737","7.5778","0.151556","305.445"
"10.1938","818.747","7.5923","0.151846","305.845"
"10.2072","818.81","7.6021","0.152042","306.245"
"10.2205","818.613","7.6159","0.152318","306.645"
"10.2339","818.466","7.6262","0.152524","307.045"
"10.2472","818.49","7.641","0.15282","307.445"
"10.2605","818.483","7.6532","0.153064","307.845"
"10.2738","818.511","7.6664","0.153328","308.245"
"10.2871","818.511","7.6807","0.153614","308.645"
"10.3005","818.388","7.6949","0.153898","309.045"
"10.3138","818.392","7.7042","0.154084","309.445"
"10.3271","818.325","7.7178","0.154356","309.845"
"10.3405","818.376","7.7291","0.154582","310.245"
"10.3538","818.528","7.747","0.15494","310.645"
"10.3672","818.578","7.7551","0.155102","311.045"
"10.3805","818.352","7.7691","0.155382","311.445"
"10.3938","818.343","7.7751","0.155502","311.845"
"10.4072","818.157","7.7944","0.155888","312.245"
"10.4205","818.169","7.8033","0.156066","312.645"
"10.4338","818.319","7.8161","0.156322","313.045"
"10.4472","818.188","7.8299","0.156598","313.445"
"10.4605","818.125","7.8395","0.15679","313.845"
"10.4738","818.154","7.8555","0.15711","314.245"
"10.4872","817.911","7.8673","0.157346","314.645"
"10.5005","817.926","7.8823","0.157646","315.045"
"10.5139","817.897","7.8935","0.15787","315.445"
"10.5272","817.756","7.9061","0.158122","315.845"
"10.5405","817.912","7.9194","0.158388","316.245"
"10.5538","817.826","7.9257","0.158514","316.645"
"10.5671","817.735","7.9446","0.158892","317.045"
"10.5804","817.578","7.9556","0.159112","317.445"
"10.5938","817.617","7.9668","0.159336","317.845"
"10.6072","817.623","7.9836","0.159672","318.245"
"10.6205","817.59","7.9975","0.15995","318.645"
"10.6339","817.535","8.0064","0.160128","319.045"
"10.6472","817.42","8.0185","0.16037","319.445"
"10.6605","817.357","8.0319","0.160638","319.845"
"10.6739","817.348","8.0472","0.160944","320.245"
"10.6872","817.261","8.0586","0.161172","320.645"
"10.7004","817.103","8.071","0.16142","321.045"
"10.7138","817.156","8.0883","0.161766","321.445"
"10.7271","817.057","8.0912","0.161824","321.845"
"10.7405","816.857","8.1088","0.162176","322.245"
"10.7539","816.841","8.1187","0.162374","322.645"
"10.7672","816.886","8.134","0.16268","323.045"
"10.7805","816.891","8.1485","0.16297","323.445"
"10.7939","816.674","8.156","0.16312","323.845"
"10.8071","816.763","8.1694","0.163388","324.245"
"10.8205","816.673","8.1833","0.163666","324.645"
"10.8338","816.614","8.2","0.164","325.045"
"10.8471","816.647","8.2124","0.164248","325.445"
"10.8605","816.365","8.223","0.16446","325.845"
"10.8738","816.145","8.238","0.16476","326.245"
"10.8872","816.106","8.2476","0.164952","326.645"
"10.9005","816.123","8.2608","0.165216","327.045"
"10.909","22.7873","8.2673","0.165346","327.295"