File: experimental_data/tensile_specimen_test_data/tensile_test_data/20250312/original_data/SSS 9 03-12-25 16 18 12 下午/数采：横梁, … - (实时值).csv
"文件路径: C:\Users\Lenovo\Desktop\Wayne\20250312\原始数据\SSS 9 03-12-25 16 18 12 下午\数采：横梁, … - (实时值).csv   "
"试验: 拉伸试验（UNIVER）      视频引伸计采集变形-W 1"
"试验运行: SSS 9"
"日期: 2025/3/12 13:40:42"
""
""
"横梁 ","力 ","视频引伸计变形 ","应变 ","时间 "
"mm","N","mm","mm/mm","sec"
"0.00246845","-94.8836","0.0001","2e-06","0.1"
"0.036561","36.1168","0.0689","0.001378","1.1"
"0.0699083","174.925","0.1123","0.002246","2.1"
"0.103209","311.138","0.1457","0.002914","3.1"
"0.136603","444.231","0.1738","0.003476","4.1"
"0.169997","573.492","0.2018","0.004036","5.1"
"0.203251","697.846","0.2248","0.004496","6.1"
"0.236552","817.8","0.2495","0.00499","7.1"
"0.269946","933.041","0.2797","0.005594","8.1"
"0.303246","1045.35","0.3038","0.006076","9.1"
"0.336594","1151.16","0.3281","0.006562","10.1"
"0.369895","1245.45","0.3529","0.007058","11.1"
"0.403242","1328.21","0.3729","0.007458","12.1"
"0.436636","1400.59","0.3961","0.007922","13.1"
"0.46989","1464.51","0.4226","0.008452","14.1"
"0.503191","1521.97","0.4452","0.008904","15.1"
"0.536538","1574.65","0.4686","0.009372","16.1"
"0.569932","1622.5","0.4912","0.009824","17.1"
"0.603233","1665.92","0.5163","0.010326","18.1"
"0.636533","1706.51","0.5426","0.010852","19.1"
"0.669927","1743.54","0.5682","0.011364","20.1"
"0.703275","1778.45","0.5929","0.011858","21.1"
"0.736575","1811.14","0.6158","0.012316","22.1"
"0.769876","1840.96","0.6411","0.012822","23.1"
"0.803223","1869.73","0.6666","0.013332","24.1"
"0.836617","1896.99","0.6914","0.013828","25.1"
"0.869965","1922.44","0.7162","0.014324","26.1"
"0.903219","1945.95","0.742","0.01484","27.1"
"0.936613","1968.22","0.7664","0.015328","28.1"
"0.96996","1989.96","0.7916","0.015832","29.1"
"1.00326","2009.82","0.8166","0.016332","30.1"
"1.03656","2028.82","0.8422","0.016844","31.1"
"1.06986","2039.5","0.8614","0.017228","32.1"
"1.10326","2061.03","0.8855","0.01771","33.1"
"1.1366","2077.59","0.9099","0.018198","34.1"
"1.16986","2093.36","0.9369","0.018738","35.1"
"1.20321","2108.4","0.9614","0.019228","36.1"
"1.2366","2122.5","0.987","0.01974","37.1"
"1.26995","2136.39","1.0122","0.020244","38.1"
"1.30325","2149.66","1.038","0.02076","39.1"
"1.3365","2162","1.0625","0.02125","40.1"
"1.3699","2174.45","1.0886","0.021772","41.1"
"1.40329","2186.67","1.1134","0.022268","42.1"
"1.43654","2197.67","1.1394","0.022788","43.1"
"1.46989","2208.61","1.1637","0.023274","44.1"
"1.50328","2219.29","1.1905","0.02381","45.1"
"1.53663","2230.18","1.2158","0.024316","46.1"
"1.56993","2239.93","1.2428","0.024856","47.1"
"1.60323","2249.6","1.2673","0.025346","48.1"
"1.63658","2259.27","1.2928","0.025856","49.1"
"1.66997","2268.52","1.3209","0.026418","50.1"
"1.70328","2277.57","1.345","0.0269","51.1"
"1.73658","2286.69","1.3701","0.027402","52.1"
"1.76992","2295.38","1.396","0.02792","53.1"
"1.80327","2304.02","1.4222","0.028444","54.1"
"1.83657","2297.32","1.4473","0.028946","55.1"
"1.86987","2313.84","1.468","0.02936","56.1"
"1.90322","2323.4","1.4927","0.029854","57.1"
"1.93661","2331.83","1.5171","0.030342","58.1"
"1.96991","2339.62","1.5433","0.030866","59.1"
"2.00322","2347.34","1.5688","0.031376","60.1"
"2.03656","2354.82","1.594","0.03188","61.1"
"2.06996","2362.48","1.6198","0.032396","62.1"
"2.10326","2370","1.6464","0.032928","63.1"
"2.13656","2377.12","1.6715","0.03343","64.1"
"2.1699","2384.36","1.6983","0.033966","65.1"
"2.2033","2391.79","1.7242","0.034484","66.1"
"2.23665","2398.66","1.7501","0.035002","67.1"
"2.26995","2405.01","1.7738","0.035476","68.1"
"2.30325","2412.13","1.8007","0.036014","69.1"
"2.33659","2419.08","1.8267","0.036534","70.1"
"2.36994","2425.56","1.8525","0.03705","71.1"
"2.40324","2432.01","1.874","0.03748","72.1"
"2.43654","2438.59","1.9021","0.038042","73.1"
"2.46989","2444.88","1.9272","0.038544","74.1"
"2.50329","2451.63","1.9538","0.039006","75.1"
"2.53659","2457.72","1.976","0.03952","76.1"
"2.56984","2462.93","2.1612","0.043224","77.1"
"2.60323","2469.42","2.1877","0.043754","78.1"
"2.63658","2475.87","2.2154","0.044308","79.1"
"2.66988","2481.77","2.241","0.04482","80.1"
"2.70323","2487.7","2.268","0.04536","81.1"
"2.73658","2493.57","2.2944","0.045888","82.1"
"2.76997","2500.02","2.3215","0.04643","83.1"
"2.80327","2447.84","2.3047","0.046094","84.1"
"2.83653","2482.75","2.3172","0.046344","85.1"
"2.86992","2499.2","2.3356","0.046712","86.1"
"2.90327","2508.48","2.3581","0.047162","87.1"
"2.93657","2514.87","2.3829","0.047658","88.1"
"2.96991","2521.07","2.4053","0.048106","89.1"
"3.00322","2526.69","2.4285","0.04857","90.1"
"3.03661","2532.55","2.4536","0.049072","91.1"
"3.06996","2537.95","2.4782","0.049564","92.1"
"3.10321","2543","2.5074","0.050148","93.1"
"3.13651","2548.35","2.5321","0.050642","94.1"
"3.16991","2553.62","2.5564","0.051128","95.1"
"3.20325","2558.96","2.5821","0.051642","96.1"
"3.23655","2564.04","2.6073","0.052146","97.1"
"3.26985","2568.83","2.6358","0.052716","98.1"
"3.30325","2574.19","2.6597","0.053194","99.1"
"3.33664","2579.69","2.6837","0.053674","100.1"
"3.3699","2584.16","2.7092","0.054184","101.1"
"3.4032","2589.16","2.7356","0.054712","102.1"
"3.43659","2594.33","2.7613","0.055226","103.1"
"3.46994","2599.17","2.7878","0.055756","104.1"
"3.50324","2603.91","2.8124","0.056248","105.1"
"3.53659","2608.68","2.8383","0.056766","106.1"
"3.56993","2613.65","2.8672","0.057344","107.1"
"3.60333","2618.72","2.899","0.05798","108.1"
"3.63658","2622.93","2.9263","0.058526","109.1"
"3.66988","2627.26","2.9468","0.058936","110.1"
"3.70323","2631.94","2.969","0.05938","111.1"
"3.73662","2636.69","2.9986","0.059972","112.1"
"3.76992","2641.03","3.0257","0.060514","113.1"
"3.80323","2645.4","3.0523","0.061046","114.1"
"3.83657","2649.79","3.0745","0.06149","115.1"
"3.86997","2654.54","3.0999","0.061998","116.1"
"3.90327","2658.85","3.127","0.06254","117.1"
"3.93652","2663.18","3.1524","0.063048","118.1"
"3.96987","2667.3","3.1789","0.063578","119.1"
"4.00326","2671.63","3.2049","0.064098","120.1"
"4.03661","2675.99","3.2302","0.064604","121.1"
"4.06986","2679.6","3.255","0.0651","122.1"
"4.10326","2683.69","3.2815","0.06563","123.1"
"4.13661","2688.35","3.3052","0.066104","124.1"
"4.16991","2692.06","3.336","0.06672","125.1"
"4.20321","2695.86","3.3618","0.067236","126.1"
"4.23655","2699.98","3.3867","0.067734","127.1"
"4.26995","2704.07","3.4122","0.068244","128.1"
"4.3033","2708.01","3.4389","0.068778","129.1"
"4.33655","2711.46","3.4665","0.06933","130.1"
"4.36994","2715.01","3.4936","0.069872","131.1"
"4.40329","2719.03","3.5187","0.070374","132.1"
"4.43664","2722.86","3.5457","0.070914","133.1"
"4.46989","2726.27","3.5717","0.071434","134.1"
"4.50319","2729.82","3.5956","0.071912","135.1"
"4.53659","2733.76","3.6207","0.072414","136.1"
"4.56993","2737.18","3.6492","0.072984","137.1"
"4.60324","2740.74","3.6766","0.073532","138.1"
"4.63654","2744.13","3.7015","0.07403","139.1"
"4.66993","2747.67","3.7296","0.074592","140.1"
"4.70328","2751.34","3.7575","0.07515","141.1"
"4.73658","2754.91","3.7827","0.075654","142.1"
"4.76983","2757.62","3.8108","0.076216","143.1"
"4.80323","2761.28","3.8382","0.076764","144.1"
"4.83662","2764.67","3.864","0.07728","145.1"
"4.86992","2767.71","3.8905","0.07781","146.1"
"4.90322","2771.28","3.9162","0.078324","147.1"
"4.93662","2774.63","3.9437","0.078874","148.1"
"4.96996","2777.59","3.9697","0.079394","149.1"
"5.00326","2780.83","3.9952","0.079904","150.1"
"5.03656","2783.45","4.0244","0.080488","151.1"
"5.06991","2786.86","4.0513","0.081026","152.1"
"5.10331","2789.83","4.0786","0.081572","153.1"
"5.13661","2792.75","4.1063","0.082126","154.1"
"5.16991","2795.84","4.1317","0.082634","155.1"
"5.20321","2798.77","4.1594","0.083188","156.1"
"5.2366","2801.34","4.1881","0.083762","157.1"
"5.2699","2804.92","4.2135","0.08427","158.1"
"5.3032","2807.26","4.2427","0.084854","159.1"
"5.33655","2809.99","4.2663","0.085326","160.1"
"5.36994","2813.07","4.2946","0.085892","161.1"
"5.40329","2816.1","4.3225","0.08645","162.1"
"5.43659","2818.64","4.3534","0.087068","163.1"
"5.46989","2821.25","4.3787","0.087574","164.1"
"5.50324","2823.99","4.4024","0.088048","165.1"
"5.53659","2826.84","4.4314","0.088628","166.1"
"5.56989","2829.4","4.46","0.0892","167.1"
"5.60324","2831.73","4.4876","0.089752","168.1"
"5.63658","2834.3","4.5111","0.090222","169.1"
"5.66998","2836.92","4.5371","0.090742","170.1"
"5.70328","2839.48","4.567","0.09134","171.1"
"5.73658","2842.04","4.5961","0.091922","172.1"
"5.76993","2844.18","4.62","0.0924","173.1"
"5.80327","2846.94","4.6487","0.092974","174.1"
"5.83657","2849.3","4.6749","0.093498","175.1"
"5.86987","2851.46","4.7056","0.094112","176.1"
"5.90322","2853.62","4.7327","0.094654","177.1"
"5.93662","2856.85","4.7578","0.095156","178.1"
"5.96992","2858.72","4.786","0.09572","179.1"
"6.00317","2860.58","4.8142","0.096284","180.1"
"6.03656","2863.02","4.8439","0.096878","181.1"
"6.06991","2865.76","4.872","0.09744","182.1"
"6.10321","2867.81","4.8983","0.097966","183.1"
"6.13656","2869.99","4.9249","0.098498","184.1"
"6.16986","2872.18","4.9523","0.099046","185.1"
"6.20326","2874.54","4.9838","0.099676","186.1"
"6.2366","2876.91","5.0111","0.100222","187.1"
"6.2699","2878.65","5.037","0.10074","188.1"
"6.3032","2880.6","5.0613","0.101226","189.1"
"6.3366","2883.06","5.0951","0.101902","190.1"
"6.36995","2884.75","5.1214","0.102428","191.1"
"6.40325","2887","5.1488","0.102976","192.1"
"6.43655","2888.69","5.1737","0.103474","193.1"
"6.46994","2890.62","5.2017","0.104034","194.1"
"6.50333","2892.86","5.2347","0.104694","195.1"
"6.53654","2894.63","5.263","0.10526","196.1"
"6.56984","2896.18","5.2886","0.105772","197.1"
"6.60324","2898.44","5.3162","0.106286","198.1"
"6.63658","2900.4","5.3468","0.106936","199.1"
"6.66988","2902.3","5.3757","0.107514","200.1"
"6.70319","2903.72","5.4007","0.108014","201.1"
"6.73658","2905.87","5.4296","0.108592","202.1"
"6.76997","2908.02","5.4563","0.109126","203.1"
"6.80323","2909.55","5.483","0.10966","204.1"
"6.83653","2911.14","5.5112","0.110224","205.1"
"6.86988","2913.18","5.5421","0.110842","206.1"
"6.90327","2914.98","5.5692","0.111384","207.1"
"6.93657","2916.61","5.6021","0.112042","208.1"
"6.96987","2918.15","5.628","0.11256","209.1"
"7.00326","2919.92","5.6547","0.113094","210.1"
"7.03666","2921.94","5.6869","0.113738","211.1"
"7.06996","2923.1","5.7159","0.114318","212.1"
"7.10321","2924.71","5.7431","0.114862","213.1"
"7.13656","2926.47","5.7747","0.115494","214.1"
"7.16995","2928.41","5.7997","0.115994","215.1"
"7.2033","2929.88","5.8296","0.116592","216.1"
"7.23656","2931.22","5.8631","0.117262","217.1"
"7.2699","2932.71","5.888","0.11776","218.1"
"7.3033","2934.64","5.9219","0.118438","219.1"
"7.3366","2936.11","5.9496","0.118992","220.1"
"7.36985","2937.36","5.9771","0.119542","221.1"
"7.4032","2938.79","6.0055","0.12011","222.1"
"7.43659","2940.52","6.0333","0.120666","223.1"
"7.46994","2942.03","6.0627","0.121254","224.1"
"7.50324","2943.64","6.0934","0.121868","225.1"
"7.53659","2945.1","6.1188","0.122376","226.1"
"7.56994","2946.64","6.1544","0.123088","227.1"
"7.60324","2947.9","6.1823","0.123646","228.1"
"7.63658","2949.46","6.212","0.12424","229.1"
"7.66984","2943.5","6.2344","0.124688","230.1"
"7.70328","2948.59","6.2607","0.125214","231.1"
"7.73663","2951.1","6.2855","0.12571","232.1"
"7.76993","2952.82","6.3155","0.12631","233.1"
"7.80327","2954.28","6.3424","0.126848","234.1"
"7.83662","2955.86","6.3733","0.127466","235.1"
"7.86997","2957.49","6.4003","0.128006","236.1"
"7.90327","2958.8","6.4279","0.128558","237.1"
"7.93652","2959.77","6.458","0.12916","238.1"
"7.96987","2961.09","6.4873","0.129746","239.1"
"8.00331","2962.89","6.5131","0.130262","240.1"
"8.03657","2964.13","6.5421","0.130842","241.1"
"8.06991","2965.39","6.5722","0.131444","242.1"
"8.10326","2966.85","6.6013","0.132026","243.1"
"8.13656","2968.4","6.6313","0.132626","244.1"
"8.16991","2969.55","6.6587","0.133174","245.1"
"8.20321","2970.77","6.6885","0.13377","246.1"
"8.23656","2971.96","6.7185","0.13437","247.1"
"8.26995","2973.24","6.7475","0.13495","248.1"
"8.30325","2974.39","6.7753","0.135506","249.1"
"8.3366","2975.98","6.8036","0.136072","250.1"
"8.3699","2976.92","6.8341","0.136682","251.1"
"8.40329","2978.17","6.8612","0.137224","252.1"
"8.43664","2979.69","6.8922","0.137844","253.1"
"8.4699","2980.58","6.9192","0.138384","254.1"
"8.50324","2981.94","6.9447","0.138894","255.1"
"8.53664","2983.29","6.9763","0.139526","256.1"
"8.56998","2984.64","7.0051","0.140102","257.1"
"8.60324","2985.48","7.0344","0.140688","258.1"
"8.63654","2986.5","7.0622","0.141244","259.1"
"8.66989","2987.87","7.0931","0.141862","260.1"
"8.70323","2989.29","7.1193","0.142386","261.1"
"8.73653","2990.01","7.1483","0.142966","262.1"
"8.76988","2991.2","7.174","0.14348","263.1"
"8.80323","2992.41","7.2058","0.144116","264.1"
"8.83662","2993.52","7.2334","0.144668","265.1"
"8.86992","2994.58","7.2626","0.145252","266.1"
"8.90322","2995.71","7.2898","0.145796","267.1"
"8.93657","2996.91","7.3182","0.146364","268.1"
"8.96992","2997.86","7.3448","0.146896","269.1"
"9.00322","2999.27","7.3733","0.147466","270.1"
"9.03657","2999.97","7.4017","0.148034","271.1"
"9.06987","3000.88","7.4332","0.148664","272.1"
"9.10331","3002.57","7.4614","0.149228","273.1"
"9.13666","3003.31","7.4911","0.149822","274.1"
"9.16986","3004.28","7.5173","0.150346","275.1"
"9.20326","3005.25","7.5468","0.150936","276.1"
"9.2366","3006.43","7.5743","0.151486","277.1"
"9.26991","3007.51","7.6057","0.152114","278.1"
"9.30321","3008.25","7.6283","0.152566","279.1"
"9.33655","3009.21","7.662","0.15324","280.1"
"9.36995","3010.55","7.691","0.15382","281.1"
"9.40329","3011.24","7.7191","0.154382","282.1"
"9.43655","3011.95","7.7471","0.154942","283.1"
"9.4699","3013.17","7.7724","0.155448","284.1"
"9.50324","3014.05","7.8045","0.15609","285.1"
"9.53659","3015.06","7.8336","0.156672","286.1"
"9.56994","3015.81","7.8629","0.157258","287.1"
"9.60319","3016.7","7.8921","0.157842","288.1"
"9.63659","3017.76","7.919","0.15838","289.1"
"9.66998","3018.66","7.9482","0.158964","290.1"
"9.70323","3019.84","7.978","0.15956","291.1"
"9.73654","3020.31","8.0055","0.16011","292.1"
"9.76993","3021.34","8.0353","0.160706","293.1"
"9.80328","3022.45","8.063","0.16126","294.1"
"9.83658","3023.25","8.0922","0.161844","295.1"
"9.86988","3023.96","8.1214","0.162428","296.1"
"9.90327","3025.22","8.1499","0.162998","297.1"
"9.93667","3026.05","8.1776","0.163552","298.1"
"9.96992","3026.55","8.2045","0.16409","299.1"
"10.0032","3027.21","8.2347","0.164694","300.1"
"10.0366","3028.25","8.266","0.16532","301.1"
"10.0699","3029.16","8.2932","0.165864","302.1"
"10.1033","3029.92","8.3217","0.166434","303.1"
"10.1366","3030.62","8.3494","0.166988","304.1"
"10.1699","3031.85","8.3786","0.167572","305.1"
"10.2033","3032.81","8.4094","0.168188","306.1"
"10.2366","3033.43","8.4361","0.168722","307.1"
"10.2699","3034.16","8.4634","0.169268","308.1"
"10.3032","3034.93","8.4921","0.169842","309.1"
"10.3366","3035.78","8.5217","0.170434","310.1"
"10.3699","3036.79","8.5505","0.17101","311.1"
"10.4032","3037.39","8.5807","0.171614","312.1"
"10.4365","3037.69","8.6094","0.172188","313.1"
"10.47","3039.1","8.6394","0.172788","314.1"
"10.5033","3039.99","8.6695","0.17339","315.1"
"10.5365","3040.57","8.6981","0.173962","316.1"
"10.5698","3041.28","8.7291","0.174582","317.1"
"10.6033","3042.07","8.7556","0.175112","318.1"
"10.6366","3043.07","8.789","0.17578","319.1"
"10.6699","3043.45","8.818","0.17636","320.1"
"10.7032","3044.03","8.8488","0.176976","321.1"
"10.7366","3045.03","8.8796","0.177592","322.1"
"10.7699","3045.68","8.9069","0.178138","323.1"
"10.8032","3046.1","8.938","0.17876","324.1"
"10.8365","3046.95","8.9666","0.179332","325.1"
"10.8699","3047.79","8.9962","0.179924","326.1"
"10.9033","3048.42","9.0247","0.180494","327.1"
"10.9366","3049.29","9.0518","0.181036","328.1"
"10.9699","3049.97","9.0803","0.181606","329.1"
"11.0033","3050.67","9.1107","0.182214","330.1"
"11.0366","3051.5","9.1413","0.182808","331.1"
"11.0699","3052.32","9.1685","0.18337","332.1"
"11.1032","3052.82","9.1982","0.183964","333.1"
"11.1366","3053.63","9.2271","0.184542","334.1"
"11.17","3054.44","9.2581","0.185162","335.1"
"11.2033","3055.37","9.2844","0.185688","336.1"
"11.2366","3055.75","9.3148","0.186296","337.1"
"11.2699","3056.24","9.3448","0.186896","338.1"
"11.3033","3057.18","9.3756","0.187512","339.1"
"11.3366","3057.74","9.4062","0.188124","340.1"
"11.3699","3058.37","9.4332","0.188664","341.1"
"11.4032","3059.4","9.4614","0.189228","342.1"
"11.4366","3059.89","9.492","0.18984","343.1"
"11.4699","3060.3","9.5247","0.190494","344.1"
"11.5032","3061.28","9.555","0.1911","345.1"
"11.5365","3061.85","9.5875","0.19175","346.1"
"11.5699","3062.35","9.6141","0.192282","347.1"
"11.6033","3063.26","9.6452","0.192904","348.1"
"11.6365","3063.84","9.6791","0.193582","349.1"
"11.6699","3064.47","9.7078","0.194156","350.1"
"11.7033","3064.58","9.7363","0.194726","351.1"
"11.7366","3065.61","9.7676","0.195352","352.1"
"11.7699","3066.14","9.7983","0.195966","353.1"
"11.8032","3066.74","9.8289","0.196578","354.1"
"11.8366","3067.78","9.8587","0.197174","355.1"
"11.8699","3068.06","9.8886","0.197772","356.1"
"11.9032","3068.81","9.9207","0.198414","357.1"
"11.9366","3069.38","9.9493","0.198986","358.1"
"11.9699","3069.94","9.9831","0.199662","359.1"
"12.0033","3070.59","10.0119","0.200238","360.1"
"12.0366","3071.3","10.0413","0.200826","361.1"
"12.0699","3071.84","10.0724","0.201448","362.1"
"12.1032","3072.08","10.1027","0.202054","363.1"
"12.1366","3072.78","10.1322","0.202644","364.1"
"12.1699","3073.38","10.1614","0.203228","365.1"
"12.2032","3073.91","10.1913","0.203826","366.1"
"12.2365","3074.48","10.2234","0.204468","367.1"
"12.27","3075.21","10.2529","0.205058","368.1"
"12.3033","3076.1","10.2832","0.205664","369.1"
"12.3366","3076.24","10.3122","0.206244","370.1"
"12.3699","3076.59","10.3427","0.206854","371.1"
"12.4032","3077.52","10.3726","0.207452","372.1"
"12.4366","3078.23","10.4026","0.208052","373.1"
"12.4699","3078.54","10.4353","0.208706","374.1"
"12.5032","3078.95","10.4627","0.209254","375.1"
"12.5366","3079.84","10.4922","0.209844","376.1"
"12.57","3080.14","10.5232","0.210464","377.1"
"12.6032","3080.79","10.5511","0.211022","378.1"
"12.6366","3081.25","10.5812","0.211624","379.1"
"12.6699","3081.76","10.6088","0.212176","380.1"
"12.7033","3082.14","10.6398","0.212796","381.1"
"12.7366","3082.6","10.67","0.2134","382.1"
"12.7699","3083.3","10.7009","0.214018","383.1"
"12.8032","3083.72","10.7315","0.21463","384.1"
"12.8366","3084.27","10.7584","0.215168","385.1"
"12.8699","3084.63","10.7911","0.215822","386.1"
"12.9032","3085.4","10.8191","0.216382","387.1"
"12.9365","3085.68","10.8509","0.217018","388.1"
"12.9699","3086.55","10.8786","0.217572","389.1"
"13.0033","3087.1","10.9092","0.218184","390.1"
"13.0365","3087.29","10.9408","0.218816","391.1"
"13.0699","3087.72","10.971","0.219384","392.1"
"13.1033","3088.77","11.0035","0.22007","393.1"
"13.1366","3088.97","11.0323","0.220646","394.1"
"13.1699","3089.01","11.0649","0.221298","395.1"
"13.2033","3090.02","11.0944","0.221888","396.1"
"13.2366","3090.4","11.1253","0.222506","397.1"
"13.27","3090.84","11.1512","0.223024","398.1"
"13.3032","3091.41","11.1828","0.223656","399.1"
"13.3366","3091.94","11.2149","0.224298","400.1"
"13.37","3092.57","11.2475","0.22495","401.1"
"13.4032","3092.68","11.2744","0.225488","402.1"
"13.4366","3093.23","11.3047","0.226094","403.1"
"13.4699","3093.65","11.3378","0.226756","404.1"
"13.5032","3093.99","11.368","0.22736","405.1"
"13.5366","3094.67","11.3968","0.227936","406.1"
"13.5699","3094.75","11.4282","0.228564","407.1"
"13.6032","3095.2","11.4627","0.229254","408.1"
"13.6366","3095.99","11.4943","0.229886","409.1"
"13.6699","3096.3","11.527","0.23054","410.1"
"13.7032","3096.66","11.5574","0.231148","411.1"
"13.7365","3097.03","11.5922","0.231844","412.1"
"13.7699","3097.74","11.6235","0.23247","413.1"
"13.8033","3098.27","11.6557","0.233114","414.1"
"13.8366","3098.35","11.688","0.23376","415.1"
"13.8699","3098.92","11.719","0.23438","416.1"
"13.9033","3099.71","11.7535","0.23507","417.1"
"13.9366","3099.87","11.7863","0.235726","418.1"
"13.9699","3100.14","11.82","0.2364","419.1"
"14.0032","3100.74","11.8534","0.237068","420.1"
"14.0366","3101.2","11.8836","0.237672","421.1"
"14.07","3101.28","11.9153","0.238306","422.1"
"14.1033","3101.84","11.9509","0.239018","423.1"
"14.1366","3102.17","11.982","0.23964","424.1"
"14.1699","3102.41","12.0144","0.240288","425.1"
"14.2033","3103.13","12.047","0.24094","426.1"
"14.2366","3103.28","12.0781","0.241562","427.1"
"14.2698","3103.7","12.1119","0.242238","428.1"
"14.3032","3103.99","12.148","0.24296","429.1"
"14.3366","3104.71","12.177","0.24354","430.1"
"14.3699","3104.75","12.2145","0.24429","431.1"
"14.4033","3105.09","12.2449","0.244898","432.1"
"14.4366","3105.88","12.2802","0.245604","433.1"
"14.4699","3106.25","12.3153","0.246306","434.1"
"14.5032","3106.69","12.3461","0.246922","435.1"
"14.5365","3106.89","12.3799","0.247598","436.1"
"14.5699","3107.3","12.4127","0.248254","437.1"
"14.6033","3107.96","12.4439","0.248878","438.1"
"14.6366","3108.14","12.4786","0.249572","439.1"
"14.6699","3108.68","12.5134","0.250268","440.1"
"14.7032","3108.77","12.5513","0.251026","441.1"
"14.7366","3109.48","12.5804","0.251608","442.1"
"14.77","3109.67","12.6142","0.252284","443.1"
"14.8032","3109.73","12.6485","0.25297","444.1"
"14.8365","3110.23","12.6823","0.253646","445.1"
"14.8699","3110.69","12.7153","0.254306","446.1"
"14.9033","3111.29","12.7509","0.255018","447.1"
"14.9366","3111.85","12.783","0.25566","448.1"
"14.9699","3111.74","12.8165","0.25633","449.1"
"15.0032","3111.97","12.8519","0.257038","450.1"
"15.0366","3112.8","12.8847","0.257694","451.1"
"15.0699","3113.05","12.9188","0.258376","452.1"
"15.1032","3113.3","12.9495","0.25899","453.1"
"15.1366","3113.78","12.9868","0.259736","454.1"
"15.1699","3114.34","13.0208","0.260416","455.1"
"15.2033","3114.81","13.0527","0.261054","456.1"
"15.2366","3115.19","13.0883","0.261766","457.1"
"15.2699","3115.52","13.1183","0.262366","458.1"
"15.3033","3115.91","13.1606","0.263212","459.1"
"15.3366","3116.13","13.1962","0.263756","460.1"
"15.3699","3116.47","13.2244","0.264488","461.1"
"15.4032","3116.81","13.2597","0.265194","462.1"
"15.4366","3117.24","13.2904","0.265808","463.1"
"15.4699","3117.73","13.3229","0.266458","464.1"
"15.5032","3118","13.3639","0.267278","465.1"
"15.5365","3118.03","13.3968","0.267936","466.1"
"15.5699","3118.71","13.4304","0.268608","467.1"
"15.6032","3119.13","13.4691","0.269382","468.1"
"15.6365","3119.19","13.4995","0.26999","469.1"
"15.6698","3119.49","13.5349","0.270698","470.1"
"15.7033","3120.21","13.5645","0.27129","471.1"
"15.7366","3120.41","13.6007","0.272014","472.1"
"15.7699","3120.75","13.6297","0.272594","473.1"
"15.8032","3121.18","13.6639","0.273278","474.1"
"15.8366","3121.49","13.701","0.27402","475.1"
"15.8699","3122.01","13.7326","0.274652","476.1"
"15.9032","3122.25","13.7635","0.27527","477.1"
"15.9365","3122.42","13.8017","0.276034","478.1"
"15.97","3122.8","13.8316","0.276632","479.1"
"16.0033","3123.4","13.8678","0.277356","480.1"
"16.0366","3123.53","13.9008","0.278016","481.1"
"16.0699","3123.59","13.9381","0.278762","482.1"
"16.1032","3123.91","13.9685","0.27937","483.1"
"16.1366","3124.53","13.9975","0.27995","484.1"
"16.17","3124.86","14.0373","0.280746","485.1"
"16.2032","3125.13","14.0653","0.281306","486.1"
"16.2366","3125.36","14.1034","0.282068","487.1"
"16.27","3125.8","14.1325","0.28265","488.1"
"16.3032","3126.04","14.1675","0.28335","489.1"
"16.3365","3126.16","14.2032","0.284064","490.1"
"16.3699","3126.6","14.2359","0.284718","491.1"
"16.4033","3126.92","14.2698","0.285396","492.1"
"16.4366","3127.31","14.3026","0.286052","493.1"
"16.4699","3127.28","14.3327","0.286654","494.1"
"16.5032","3127.71","14.3708","0.287416","495.1"
"16.5366","3128.39","14.4053","0.288106","496.1"
"16.5699","3128.31","14.438","0.28876","497.1"
"16.6032","3128.71","14.4704","0.289408","498.1"
"16.6365","3129.1","14.5065","0.29013","499.1"
"16.6699","3129.38","14.5344","0.290688","500.1"
"16.7033","3129.83","14.5689","0.291378","501.1"
"16.7366","3130.16","14.6027","0.292054","502.1"
"16.7699","3130.12","14.6384","0.292768","503.1"
"16.8033","3130.8","14.6653","0.293306","504.1"
"16.8366","3131.03","14.7091","0.294182","505.1"
"16.8699","3131.22","14.7376","0.294752","506.1"
"16.9032","3131.11","14.7751","0.295502","507.1"
"16.9366","3131.55","14.8056","0.296112","508.1"
"16.9699","3132.18","14.8385","0.29677","509.1"
"17.0032","3132.39","14.8766","0.297532","510.1"
"17.0366","3132.89","14.9061","0.298122","511.1"
"17.0699","3133.29","14.9414","0.298828","512.1"
"17.1033","3133.67","14.9763","0.299526","513.1"
"17.1366","3133.66","15.0098","0.300196","514.1"
"17.1699","3133.79","15.0462","0.300924","515.1"
"17.2033","3134.62","15.0845","0.30169","516.1"
"17.2366","3134.83","15.1112","0.302224","517.1"
"17.2699","3135.12","15.1532","0.303064","518.1"
"17.3033","3135.29","15.182","0.30364","519.1"
"17.3366","3135.79","15.2167","0.304334","520.1"
"17.37","3136.26","15.2487","0.304974","521.1"
"17.4033","3136.37","15.2929","0.305858","522.1"
"17.4365","3136.5","15.3222","0.306444","523.1"
"17.4699","3136.54","15.3572","0.307144","524.1"
"17.5033","3137.15","15.3914","0.307828","525.1"
"17.5366","3137.79","15.4309","0.308618","526.1"
"17.5699","3137.69","15.4592","0.309184","527.1"
"17.6032","3137.91","15.4952","0.309904","528.1"
"17.6366","3138.21","15.5364","0.310728","529.1"
"17.6699","3138.64","15.5715","0.31143","530.1"
"17.7032","3138.6","15.6061","0.312122","531.1"
"17.7365","3139.21","15.6407","0.312814","532.1"
"17.7699","3139.65","15.6752","0.313504","533.1"
"17.8033","3139.71","15.7144","0.314288","534.1"
"17.8366","3140.12","15.7518","0.315036","535.1"
"17.8699","3140.4","15.7866","0.315732","536.1"
"17.9032","3140.89","15.8274","0.316548","537.1"
"17.9366","3140.82","15.8621","0.317242","538.1"
"17.9699","3140.88","15.8933","0.317866","539.1"
"18.0032","3141.17","15.9287","0.318574","540.1"
"18.0366","3141.72","15.9677","0.319354","541.1"
"18.07","3141.97","15.996","0.31992","542.1"
"18.1033","3142.62","16.0314","0.320628","543.1"
"18.1366","3142.38","16.0774","0.321548","544.1"
"18.1699","3142.8","16.1008","0.322016","545.1"
"18.2033","3143.03","16.1434","0.322868","546.1"
"18.2366","3143.21","16.1786","0.323572","547.1"
"18.2699","3143.52","16.2112","0.324224","548.1"
"18.3032","3143.83","16.2507","0.325014","549.1"
"18.3366","3144.27","16.2868","0.325736","550.1"
"18.37","3144.47","16.3219","0.326438","551.1"
"18.4032","3144.62","16.3526","0.327052","552.1"
"18.4366","3144.78","16.3879","0.327758","553.1"
"18.4699","3145.17","16.4199","0.328398","554.1"
"18.5032","3145.53","16.4521","0.329042","555.1"
"18.5365","3145.67","16.4915","0.32983","556.1"
"18.5699","3146.06","16.528","0.33056","557.1"
"18.6032","3146.43","16.5549","0.331098","558.1"
"18.6366","3146.78","16.5866","0.331732","559.1"
"18.6699","3146.99","16.6222","0.332444","560.1"
"18.7032","3146.94","16.6516","0.333032","561.1"
"18.7366","3147.17","16.6925","0.33385","562.1"
"18.7699","3147.55","16.7221","0.334442","563.1"
"18.8032","3147.89","16.7646","0.335292","564.1"
"18.8365","3147.98","16.7954","0.335908","565.1"
"18.87","3148.15","16.8189","0.336378","566.1"
"18.9033","3148.42","16.8543","0.337086","567.1"
"18.9366","3148.69","16.893","0.33786","568.1"
"18.9699","3148.51","16.9277","0.338554","569.1"
"19.0032","3149.08","16.9616","0.339232","570.1"
"19.0366","3149.58","16.9911","0.339822","571.1"
"19.0699","3149.75","17.0201","0.340402","572.1"
"19.1032","3149.89","17.0577","0.341154","573.1"
"19.1366","3150.41","17.0935","0.34187","574.1"
"19.17","3150.6","17.1256","0.342512","575.1"
"19.2032","3150.71","17.1541","0.343082","576.1"
"19.2366","3150.61","17.1921","0.343842","577.1"
"19.2699","3151.03","17.2376","0.344752","578.1"
"19.3033","3151.46","17.2573","0.345146","579.1"
"19.3366","3151.88","17.2962","0.345924","580.1"
"19.3699","3151.95","17.3218","0.346436","581.1"
"19.4033","3152.06","17.3657","0.347314","582.1"
"19.4366","3152.68","17.3968","0.347936","583.1"
"19.4699","3152.74","17.4365","0.34873","584.1"
"19.5032","3152.83","17.4735","0.34947","585.1"
"19.5366","3152.82","17.4976","0.349952","586.1"
"19.5699","3153.44","17.5298","0.350596","587.1"
"19.6033","3153.8","17.5712","0.351424","588.1"
"19.6365","3153.66","17.5957","0.351914","589.1"
"19.6699","3153.9","17.6256","0.352512","590.1"
"19.7033","3154.38","17.6554","0.353108","591.1"
"19.7366","3154.22","17.6962","0.353924","592.1"
"19.7699","3154.48","17.7413","0.354826","593.1"
"19.8032","3155.03","17.7718","0.355436","594.1"
"19.8366","3155.17","17.7962","0.355924","595.1"
"19.8699","3155.51","17.836","0.35672","596.1"
"19.9032","3155.63","17.8695","0.35739","597.1"
"19.9366","3155.93","17.9053","0.358106","598.1"
"19.9699","3156.01","17.9053","0.358106","599.1"
"20.0033","3156.54","17.9743","0.359486","600.1"
"20.0366","3156.58","18.0033","0.360066","601.1"
"20.0699","3156.53","18.0441","0.360882","602.1"
"20.1033","3156.87","18.0751","0.361502","603.1"
"20.1366","3157.33","18.1137","0.362274","604.1"
"20.1699","3157.49","18.1538","0.363076","605.1"
"20.2032","3157.52","18.1811","0.363622","606.1"
"20.2366","3158.04","18.2245","0.36449","607.1"
"20.27","3158.49","18.2582","0.365164","608.1"
"20.3033","3158.49","18.296","0.36592","609.1"
"20.3365","3158.52","18.3349","0.366698","610.1"
"20.3699","3158.92","18.3761","0.367522","611.1"
"20.4033","3159.22","18.4051","0.368102","612.1"
"20.4366","3159.24","18.4508","0.369016","613.1"
"20.4699","3159.4","18.4909","0.369818","614.1"
"20.5032","3159.74","18.5181","0.370362","615.1"
"20.5366","3159.97","18.5628","0.371256","616.1"
"20.5699","3160.2","18.5947","0.371894","617.1"
"20.6032","3160.5","18.6266","0.372532","618.1"
"20.6365","3160.69","18.6567","0.373134","619.1"
"20.6699","3160.82","18.6857","0.373714","620.1"
"20.7033","3161.27","18.7256","0.374512","621.1"
"20.7366","3161.45","18.7524","0.375048","622.1"
"20.7699","3161.27","18.7877","0.375754","623.1"
"20.8033","3161.89","18.8192","0.376384","624.1"
"20.8366","3161.92","18.8504","0.377008","625.1"
"20.8699","3162.24","18.8896","0.377792","626.1"
"20.9032","3162.21","18.9231","0.378462","627.1"
"20.9366","3162.73","18.9417","0.378834","628.1"
"20.9699","3163.06","18.988","0.37976","629.1"
"21.0033","3162.96","19.0109","0.380218","630.1"
"21.0365","3163.3","19.041","0.38082","631.1"
"21.0699","3163.64","19.0732","0.381464","632.1"
"21.1033","3163.78","19.114","0.38228","633.1"
"21.1365","3163.82","19.1473","0.382946","634.1"
"21.1699","3164.3","19.1752","0.383504","635.1"
"21.2032","3164.54","19.2085","0.38417","636.1"
"21.2366","3164.9","19.2443","0.384886","637.1"
"21.27","3165.27","19.2668","0.385336","638.1"
"21.3032","3165.12","19.3131","0.386262","639.1"
"21.3366","3165.42","19.3379","0.386758","640.1"
"21.37","3165.75","19.3722","0.387444","641.1"
"21.4032","3166.15","19.4052","0.388104","642.1"
"21.4366","3166.15","19.4336","0.388672","643.1"
"21.47","3166.21","19.4611","0.389222","644.1"
"21.5033","3166.68","19.5063","0.390126","645.1"
"21.5366","3167.08","19.5382","0.390764","646.1"
"21.5699","3166.69","19.5657","0.391314","647.1"
"21.6032","3167.31","19.6018","0.392036","648.1"
"21.6366","3167.76","19.6364","0.392728","649.1"
"21.6699","3167.63","19.6588","0.393176","650.1"
"21.7032","3168.1","19.6971","0.393942","651.1"
"21.7365","3168.24","19.7247","0.394494","652.1"
"21.7699","3168.45","19.7609","0.395218","653.1"
"21.8033","3168.42","19.7954","0.395908","654.1"
"21.8366","3168.75","19.8277","0.396554","655.1"
"21.8698","3168.96","19.8621","0.397242","656.1"
"21.9032","3168.94","19.8999","0.397998","657.1"
"21.9366","3169.39","19.9373","0.398746","658.1"
"21.9699","3169.57","19.9662","0.399324","659.1"
"22.0032","3169.55","20.0037","0.400074","660.1"
"22.0366","3170.25","20.0319","0.400638","661.1"
"22.07","3170.61","20.0723","0.401446","662.1"
"22.1032","3170.73","20.1116","0.402232","663.1"
"22.1365","3170.41","20.1432","0.402864","664.1"
"22.1699","3170.94","20.1737","0.403474","665.1"
"22.2033","3171.19","20.2166","0.404332","666.1"
"22.2366","3171.4","20.2439","0.404878","667.1"
"22.2699","3171.29","20.2749","0.405498","668.1"
"22.3033","3171.71","20.3004","0.406008","669.1"
"22.3367","3172.05","20.3365","0.40673","670.1"
"22.3699","3172.17","20.3708","0.407416","671.1"
"22.4032","3172.17","20.4055","0.40811","672.1"
"22.4365","3172.16","20.4386","0.408772","673.1"
"22.4699","3172.66","20.4697","0.409394","674.1"
"22.5033","3172.79","20.4976","0.409952","675.1"
"22.5365","3173.3","20.5294","0.410588","676.1"
"22.5699","3173.6","20.5612","0.411224","677.1"
"22.6033","3173.66","20.5936","0.411872","678.1"
"22.6366","3173.97","20.6244","0.412488","679.1"
"22.6699","3173.91","20.6546","0.413092","680.1"
"22.7032","3173.95","20.6865","0.41373","681.1"
"22.7366","3174.46","20.7191","0.414382","682.1"
"22.7699","3174.8","20.7496","0.414992","683.1"
"22.8032","3174.53","20.784","0.41568","684.1"
"22.8366","3175.09","20.8117","0.416234","685.1"
"22.87","3175.33","20.8466","0.416932","686.1"
"22.9033","3175.24","20.8782","0.417564","687.1"
"22.9366","3175.67","20.9102","0.418204","688.1"
"22.9699","3175.45","20.9452","0.418904","689.1"
"23.0033","3175.73","20.974","0.41948","690.1"
"23.0366","3175.99","21.0069","0.420138","691.1"
"23.0699","3176.11","21.0393","0.420786","692.1"
"23.1032","3176.36","21.0704","0.421408","693.1"
"23.1366","3176.6","21.1033","0.422066","694.1"
"23.1699","3176.61","21.132","0.42264","695.1"
"23.2032","3177.11","21.171","0.42342","696.1"
"23.2365","3176.95","21.2016","0.424032","697.1"
"23.2699","3177.15","21.232","0.42464","698.1"
"23.3033","3177.47","21.2621","0.425242","699.1"
"23.3366","3177.73","21.2963","0.425926","700.1"
"23.3699","3178.09","21.3298","0.426596","701.1"
"23.4033","3178.12","21.3634","0.427268","702.1"
"23.4366","3178.55","21.395","0.4279","703.1"
"23.4699","3178.55","21.4221","0.428442","704.1"
"23.5032","3178.59","21.4523","0.429046","705.1"
"23.5366","3178.74","21.4834","0.429668","706.1"
"23.5699","3179.47","21.5126","0.430252","707.1"
"23.6033","3179.33","21.5433","0.430866","708.1"
"23.6366","3179.57","21.573","0.43146","709.1"
"23.6699","3179.75","21.5998","0.431996","710.1"
"23.7033","3179.72","21.6325","0.43265","711.1"
"23.7366","3179.76","21.6621","0.433242","712.1"
"23.7699","3179.99","21.6926","0.433852","713.1"
"23.8032","3180.1","21.7198","0.434396","714.1"
"23.8366","3180.4","21.748","0.43496","715.1"
"23.8699","3180.65","21.7788","0.435576","716.1"
"23.9032","3180.97","21.8062","0.436124","717.1"
"23.9365","3180.85","21.839","0.43678","718.1"
"23.9699","3181.21","21.8651","0.437302","719.1"
"24.0033","3181.55","21.8966","0.437932","720.1"
"24.0365","3181.61","21.9253","0.438506","721.1"
"24.0699","3181.69","21.9576","0.439152","722.1"
"24.1033","3181.94","21.9883","0.439766","723.1"
"24.1366","3182.2","22.0159","0.440318","724.1"
"24.1699","3182.49","22.0443","0.440886","725.1"
"24.2032","3182.45","22.074","0.44148","726.1"
"24.2366","3183.14","22.1038","0.442076","727.1"
"24.2699","3183.12","22.1345","0.44269","728.1"
"24.3032","3183.14","22.1631","0.443262","729.1"
"24.3366","3183.38","22.1936","0.443872","730.1"
"24.3699","3183.58","22.2221","0.444442","731.1"
"24.4033","3183.76","22.2536","0.445072","732.1"
"24.4367","3183.98","22.2858","0.445716","733.1"
"24.4699","3184.07","22.3143","0.446286","734.1"
"24.5032","3184.1","22.3437","0.446874","735.1"
"24.5366","3184.13","22.3721","0.447442","736.1"
"24.5699","3184.3","22.4034","0.448068","737.1"
"24.6032","3184.61","22.4337","0.448674","738.1"
"24.6365","3184.37","22.4639","0.449278","739.1"
"24.6699","3185.03","22.4939","0.449878","740.1"
"24.7033","3185.3","22.5248","0.450496","741.1"
"24.7365","3185.16","22.5547","0.451094","742.1"
"24.7699","3185.3","22.5838","0.451676","743.1"
"24.8032","3185.63","22.6145","0.45229","744.1"
"24.8366","3185.51","22.6456","0.452912","745.1"
"24.8699","3185.94","22.6744","0.453488","746.1"
"24.9032","3186.07","22.708","0.45416","747.1"
"24.9366","3186.49","22.7359","0.454718","748.1"
"24.97","3186.62","22.766","0.45532","749.1"
"25.0032","3186.56","22.7962","0.455924","750.1"
"25.0365","3186.94","22.8275","0.45655","751.1"
"25.0699","3186.88","22.8575","0.45715","752.1"
"25.1033","3186.79","22.8877","0.457754","753.1"
"25.1366","3187.34","22.918","0.45836","754.1"
"25.1699","3187.34","22.9498","0.458996","755.1"
"25.2033","3187.45","22.9794","0.459588","756.1"
"25.2366","3188.04","23.0114","0.460228","757.1"
"25.2699","3187.83","23.04","0.4608","758.1"
"25.3032","3187.61","23.072","0.46144","759.1"
"25.3366","3187.78","23.101","0.46202","760.1"
"25.37","3188.01","23.1307","0.462614","761.1"
"25.4032","3188.32","23.1626","0.463252","762.1"
"25.4365","3188.25","23.1922","0.463844","763.1"
"25.47","3188.64","23.2227","0.464454","764.1"
"25.5033","3188.94","23.2547","0.465094","765.1"
"25.5366","3188.81","23.2845","0.46569","766.1"
"25.5699","3188.96","23.3119","0.466238","767.1"
"25.6032","3189.34","23.3441","0.466882","768.1"
"25.6366","3189.54","23.3763","0.467526","769.1"
"25.6699","3189.44","23.4058","0.468116","770.1"
"25.7032","3189.97","23.4343","0.468686","771.1"
"25.7366","3189.93","23.4647","0.469294","772.1"
"25.77","3190","23.4973","0.469946","773.1"
"25.8033","3190.21","23.527","0.47054","774.1"
"25.8365","3190.09","23.5599","0.471198","775.1"
"25.8698","3190.25","23.5889","0.471778","776.1"
"25.9032","3190.32","23.619","0.47238","777.1"
"25.9366","3190.66","23.6523","0.473046","778.1"
"25.9699","3190.6","23.683","0.47366","779.1"
"26.0032","3190.81","23.7159","0.474318","780.1"
"26.0366","3191.09","23.7459","0.474918","781.1"
"26.0699","3191.3","23.7764","0.475528","782.1"
"26.1032","3191.24","23.8084","0.476168","783.1"
"26.1365","3191.21","23.8345","0.47669","784.1"
"26.1699","3191.62","23.872","0.47744","785.1"
"26.2033","3191.73","23.8974","0.477948","786.1"
"26.2366","3191.81","23.9286","0.478572","787.1"
"26.2699","3192.08","23.9608","0.479216","788.1"
"26.3033","3192.18","23.9906","0.479812","789.1"
"26.3366","3192.18","24.0249","0.480456","790.1"
"26.3699","3192.45","24.053","0.48106","791.1"
"26.4032","3190.35","24.0839","0.481678","792.1"
"26.4366","3190.91","24.1145","0.48229","793.1"
"26.47","3191.71","24.1404","0.482808","794.1"
"26.5033","3191.96","24.1721","0.483442","795.1"
"26.5366","3192.11","24.2017","0.484034","796.1"
"26.5699","3192.18","24.2357","0.484714","797.1"
"26.6032","3192.6","24.2661","0.485322","798.1"
"26.6366","3192.72","24.2961","0.485922","799.1"
"26.6699","3192.64","24.3275","0.48655","800.1"
"26.7032","3192.84","24.3604","0.487208","801.1"
"26.7366","3193.47","24.3891","0.487782","802.1"
"26.7699","3193.4","24.4219","0.488438","803.1"
"26.8032","3193.6","24.4507","0.489014","804.1"
"26.8366","3193.88","24.4856","0.489712","805.1"
"26.8699","3194.11","24.516","0.49032","806.1"
"26.9032","3194.13","24.5492","0.490984","807.1"
"26.9365","3194.01","24.5842","0.491684","808.1"
"26.9699","3194.49","24.6105","0.49221","809.1"
"27.0033","3194.84","24.6425","0.49285","810.1"
"27.0366","3194.82","24.6775","0.49355","811.1"
"27.0699","3195.09","24.7145","0.49429","812.1"
"27.1032","3194.98","24.7448","0.494896","813.1"
"27.1366","3195.12","24.7732","0.495464","814.1"
"27.1699","3195.72","24.8148","0.496296","815.1"
"27.2032","3195.51","24.8499","0.496998","816.1"
"27.2365","3195.83","24.8792","0.497584","817.1"
"27.2699","3195.92","24.9099","0.498198","818.1"
"27.3033","3196.25","24.94","0.4988","819.1"
"27.3366","3196.24","24.9783","0.499566","820.1"
"27.3699","3196.39","25.0133","0.500266","821.1"
"27.4033","3196.61","25.0447","0.500894","822.1"
"27.4366","3196.9","25.0825","0.50165","823.1"
"27.4699","3196.61","25.1147","0.502294","824.1"
"27.5032","3196.88","25.155","0.5031","825.1"
"27.5366","3197.09","25.1947","0.503894","826.1"
"27.5699","3197.42","25.2292","0.504584","827.1"
"27.6033","3197.48","25.2551","0.505102","828.1"
"27.6366","3197.37","25.2977","0.505954","829.1"
"27.6699","3197.82","25.3379","0.506758","830.1"
"27.7033","3198.13","25.375","0.5075","831.1"
"27.7366","3198.06","25.4111","0.508222","832.1"
"27.7699","3198.1","25.4464","0.508928","833.1"
"27.8032","3198.02","25.4823","0.509646","834.1"
"27.8366","3198.66","25.521","0.51042","835.1"
"27.87","3198.82","25.5581","0.511162","836.1"
"27.9032","3198.42","25.5973","0.511946","837.1"
"27.9365","3198.34","25.6334","0.512668","838.1"
"27.9699","3198.77","25.6543","0.513086","839.1"
"28.0032","3199.02","25.6856","0.513712","840.1"
"28.0365","3199.09","25.7135","0.51427","841.1"
"28.0699","3198.91","25.7429","0.514858","842.1"
"28.1033","3199.09","25.7754","0.515508","843.1"
"28.1366","3198.68","25.8036","0.516072","844.1"
"28.1699","3198.58","25.8319","0.516638","845.1"
"28.2032","3198.93","25.8638","0.517276","846.1"
"28.2366","3197.77","25.8901","0.517802","847.1"
"28.2699","3197.95","25.9223","0.518446","848.1"
"28.3032","3198.51","25.9519","0.519038","849.1"
"28.3366","3198.61","25.9812","0.519624","850.1"
"28.3699","3198.82","26.0113","0.520226","851.1"
"28.4033","3199.13","26.0375","0.5207","852.1"
"28.4366","3199.28","26.0669","0.521338","853.1"
"28.4699","3199.14","26.0959","0.521918","854.1"
"28.5033","3199.37","26.1244","0.522488","855.1"
"28.5366","3199.77","26.1543","0.523086","856.1"
"28.5699","3199.58","26.1829","0.523658","857.1"
"28.6032","3199.33","26.2143","0.524286","858.1"
"28.6366","3199.66","26.242","0.52484","859.1"
"28.6699","3199.21","26.2725","0.52545","860.1"
"28.7032","3199.23","26.3014","0.526028","861.1"
"28.7365","3199.08","26.3313","0.526626","862.1"
"28.7698","3199.2","26.3584","0.527168","863.1"
"28.8032","3199.55","26.3873","0.527746","864.1"
"28.8366","3199.57","26.4186","0.528372","865.1"
"28.8699","3199.57","26.4468","0.528936","866.1"
"28.9032","3199.81","26.4812","0.529624","867.1"
"28.9366","3199.88","26.5067","0.530134","868.1"
"28.9699","3200.12","26.5337","0.530674","869.1"
"29.0032","3200.15","26.5641","0.531282","870.1"
"29.0365","3200.33","26.5946","0.531892","871.1"
"29.0699","3200.55","26.6228","0.532456","872.1"
"29.1033","3200.71","26.6521","0.533042","873.1"
"29.1366","3200.81","26.6789","0.533578","874.1"
"29.1699","3200.65","26.7114","0.534228","875.1"
"29.2033","3200.87","26.7395","0.53479","876.1"
"29.2366","3201.07","26.7704","0.535408","877.1"
"29.2699","3201.06","26.7995","0.53599","878.1"
"29.3032","3200.73","26.8256","0.536512","879.1"
"29.3366","3201.19","26.8553","0.537106","880.1"
"29.37","3201.51","26.8874","0.537748","881.1"
"29.4032","3201.46","26.9159","0.538318","882.1"
"29.4366","3201.39","26.9452","0.538904","883.1"
"29.4699","3201.89","26.9773","0.539546","884.1"
"29.5033","3201.83","27.0016","0.540032","885.1"
"29.5366","3201.61","27.0335","0.54067","886.1"
"29.5699","3202","27.065","0.5413","887.1"
"29.6032","3202.09","27.0925","0.54185","888.1"
"29.6366","3202.3","27.1215","0.54243","889.1"
"29.6699","3202.06","27.1504","0.543008","890.1"
"29.7032","3202.11","27.1813","0.543626","891.1"
"29.7366","3202.02","27.2072","0.544144","892.1"
"29.7699","3202.24","27.2385","0.54477","893.1"
"29.8033","3202.66","27.268","0.54536","894.1"
"29.8365","3202.28","27.2935","0.54587","895.1"
"29.8699","3202.27","27.3258","0.546516","896.1"
"29.9033","3202.63","27.3539","0.547078","897.1"
"29.9366","3202.61","27.3829","0.547658","898.1"
"29.9699","3202.81","27.4093","0.548186","899.1"
"30.0032","3202.96","27.4443","0.548886","900.1"
"30.0366","3202.91","27.4714","0.549428","901.1"
"30.0699","3203.28","27.4991","0.549982","902.1"
"30.1032","3203.14","27.5307","0.550614","903.1"
"30.1365","3203.18","27.5576","0.551152","904.1"
"30.1699","3203.61","27.587","0.55174","905.1"
"30.2033","3203.17","27.6162","0.552324","906.1"
"30.2366","3203.74","27.6417","0.552834","907.1"
"30.2699","3203.56","27.6744","0.553488","908.1"
"30.3032","3203.41","27.7049","0.553994","909.1"
"30.3366","3203.67","27.7311","0.554622","910.1"
"30.3699","3203.28","27.7577","0.555154","911.1"
"30.4032","3203.48","27.7882","0.555764","912.1"
"30.4366","3203.54","27.8194","0.556388","913.1"
"30.47","3203.22","27.8433","0.556866","914.1"
"30.5033","3203.02","27.8664","0.557328","915.1"
"30.5366","3202.86","27.9017","0.558034","916.1"
"30.5699","3203.16","27.9286","0.558572","917.1"
"30.6033","3203.76","27.9552","0.559104","918.1"
"30.6366","3203.63","27.9826","0.559652","919.1"
"30.6699","3203.49","28.0128","0.560256","920.1"
"30.7032","3203.65","28.0408","0.560816","921.1"
"30.7366","3203.96","28.069","0.56138","922.1"
"30.7699","3204.06","28.0991","0.561982","923.1"
"30.8032","3204.02","28.1259","0.562518","924.1"
"30.8365","3204.11","28.1575","0.56315","925.1"
"30.8699","3204","28.1844","0.563688","926.1"
"30.9032","3204.15","28.2126","0.564252","927.1"
"30.9366","3204.2","28.2407","0.564814","928.1"
"30.9698","3204.17","28.2709","0.565418","929.1"
"31.0033","3203.97","28.2948","0.565896","930.1"
"31.0366","3204.22","28.3296","0.566592","931.1"
"31.0699","3204.08","28.351","0.56702","932.1"
"31.1032","3204.18","28.3833","0.567666","933.1"
"31.1366","3204.14","28.4149","0.568298","934.1"
"31.1699","3204.19","28.4385","0.56877","935.1"
"31.2033","3204.11","28.4696","0.569392","936.1"
"31.2366","3203.71","28.4968","0.569936","937.1"
"31.27","3202.9","28.5223","0.570446","938.1"
"31.3033","3203.01","28.553","0.57106","939.1"
"31.3366","3202.67","28.5798","0.571596","940.1"
"31.3699","3202.38","28.6033","0.572066","941.1"
"31.4032","3202.13","28.6318","0.572636","942.1"
"31.4366","3199.82","28.6554","0.573108","943.1"
"31.4699","3191.94","28.6766","0.573532","944.1"
"31.5032","3190.97","28.6986","0.573972","945.1"
"31.5366","3185.82","28.7177","0.574354","946.1"
"31.57","3176.34","28.7269","0.574538","947.1"
"31.6033","3166.57","28.742","0.57484","948.1"
"31.6365","3160.1","28.7555","0.57511","949.1"
"31.6699","3126.84","28.7571","0.575142","950.1"
"31.7032","3103.58","28.7665","0.57533","951.1"
"31.7366","3046.61","28.7589","0.575178","952.1"
"31.7698","1921.84","28.429","0.56858","953.1"
"31.8032","1906.18","28.4301","0.568602","954.1"
"31.8366","1909.27","28.4299","0.568598","955.1"
"31.8699","1914.7","28.4335","0.56867","956.1"
"31.9032","1920.41","28.4369","0.568738","957.1"
"31.9365","1925.89","28.441","0.56882","958.1"
"31.9699","1929.59","28.4408","0.568816","959.1"
"32.0033","1916.65","28.4421","0.568842","960.1"
"32.0365","1886.33","28.4358","0.568716","961.1"
"32.0699","1866.85","28.4308","0.568616","962.1"
"32.1033","1826.09","28.4248","0.568496","963.1"
"32.1265","41.9384","28.3864","0.567728","963.792"