File: experimental_data/tensile_specimen_test_data/tensile_test_data/20250312/original_data/SSS 7 03-12-25 16 18 12 下午/数采：横梁, … - (实时值).csv
"文件路径: C:\Users\Lenovo\Desktop\Wayne\20250312\原始数据\SSS 7 03-12-25 16 18 12 下午\数采：横梁, … - (实时值).csv   "
"试验: 拉伸试验（UNIVER）      视频引伸计采集变形-W 1"
"试验运行: SSS 7"
"日期: 2025/3/12 13:09:30"
""
""
"横梁 ","力 ","视频引伸计变形 ","应变 ","时间 "
"mm","N","mm","mm/mm","sec"
"0.00242187","41.946","-0.0004","-8e-06","0.1"
"0.0165339","95.6365","0.0123","0.000246","0.5"
"0.0299008","147.48","0.0286","0.000572","0.9"
"0.0432211","199.116","0.0386","0.000772","1.3"
"0.0566346","250.673","0.0521","0.001042","1.7"
"0.0699549","300.927","0.0619","0.001238","2.1"
"0.0832286","350.374","0.0732","0.001464","2.5"
"0.0965955","400.024","0.0853","0.001706","2.9"
"0.109916","448.112","0.0932","0.001864","3.3"
"0.123236","495.638","0.104","0.00208","3.7"
"0.136556","542.143","0.112","0.00224","4.1"
"0.149877","588.713","0.1218","0.002436","4.5"
"0.163244","634.695","0.1316","0.002632","4.9"
"0.17661","679.81","0.1402","0.002804","5.3"
"0.189931","724.537","0.1506","0.003012","5.7"
"0.203251","768.678","0.1556","0.003112","6.1"
"0.216618","812.317","0.1648","0.003296","6.5"
"0.229892","855.077","0.1739","0.003478","6.9"
"0.243212","897.579","0.1822","0.003644","7.3"
"0.256532","939.165","0.1907","0.003814","7.7"
"0.269853","980.062","0.1973","0.003946","8.1"
"0.283219","1020.68","0.2069","0.004138","8.5"
"0.29654","1060.22","0.2133","0.004266","8.9"
"0.309907","1099.09","0.2224","0.004448","9.3"
"0.323273","1136.36","0.2323","0.004646","9.7"
"0.336594","1171.86","0.2394","0.004788","10.1"
"0.349961","1205.76","0.2479","0.004958","10.5"
"0.363281","1238.18","0.2558","0.005116","10.9"
"0.376601","1268.68","0.2629","0.005258","11.3"
"0.389875","1297.99","0.2714","0.005428","11.7"
"0.403242","1325.68","0.2788","0.005576","12.1"
"0.416562","1351.98","0.2874","0.005748","12.5"
"0.429882","1377.39","0.2974","0.005948","12.9"
"0.443249","1401.73","0.3047","0.006094","13.3"
"0.45657","1425.1","0.3126","0.006252","13.7"
"0.469936","1447.32","0.3193","0.006386","14.1"
"0.483257","1469.09","0.3284","0.006568","14.5"
"0.496577","1489.82","0.3344","0.006688","14.9"
"0.509897","1509.76","0.3449","0.006898","15.3"
"0.523218","1528.97","0.3529","0.007058","15.7"
"0.536538","1547.49","0.3598","0.007196","16.1"
"0.549858","1565.25","0.3683","0.007366","16.5"
"0.563225","1582.5","0.3768","0.007536","16.9"
"0.576545","1599.17","0.3876","0.007752","17.3"
"0.589959","1615.78","0.3974","0.007948","17.7"
"0.603279","1631.39","0.403","0.00806","18.1"
"0.6166","1646.82","0.413","0.00826","18.5"
"0.629966","1662.03","0.4202","0.008404","18.9"
"0.64324","1676.33","0.4284","0.008568","19.3"
"0.65656","1690.45","0.4372","0.008744","19.7"
"0.669881","1704.08","0.4425","0.00885","20.1"
"0.683201","1716.98","0.4526","0.009052","20.5"
"0.696568","1729.92","0.4589","0.009178","20.9"
"0.709935","1742.6","0.4692","0.009384","21.3"
"0.723255","1754.9","0.4793","0.009586","21.7"
"0.736575","1767.11","0.4855","0.00971","22.1"
"0.749942","1779.14","0.4949","0.009898","22.5"
"0.763263","1790.41","0.5013","0.010026","22.9"
"0.776583","1801.68","0.5098","0.010196","23.3"
"0.78995","1812.32","0.5204","0.010408","23.7"
"0.803177","1822.96","0.527","0.01054","24.1"
"0.816544","1833.37","0.5366","0.010732","24.5"
"0.829864","1843.55","0.5445","0.01089","24.9"
"0.843184","1853.81","0.5531","0.011062","25.3"
"0.856598","1863.52","0.5614","0.011228","25.7"
"0.869918","1872.84","0.5691","0.011382","26.1"
"0.883285","1882.51","0.5779","0.011558","26.5"
"0.896605","1891.76","0.5845","0.01169","26.9"
"0.909926","1900.21","0.5947","0.011894","27.3"
"0.923246","1909.05","0.6011","0.012022","27.7"
"0.936566","1917.55","0.6103","0.012206","28.1"
"0.949887","1926.07","0.6201","0.012402","28.5"
"0.963207","1934.18","0.6274","0.012548","28.9"
"0.976574","1942.48","0.6376","0.012752","29.3"
"0.989894","1950.07","0.6445","0.01289","29.7"
"1.00326","1957.84","0.6543","0.013086","30.1"
"1.01663","1965.65","0.6616","0.013232","30.5"
"1.02995","1972.85","0.6704","0.013408","30.9"
"1.04327","1980.09","0.6785","0.01357","31.3"
"1.05659","1987.11","0.6876","0.013752","31.7"
"1.06991","1993.84","0.696","0.01392","32.1"
"1.08323","2001.04","0.7057","0.014114","32.5"
"1.09655","2007.58","0.7121","0.014242","32.9"
"1.10987","2014","0.7221","0.014442","33.3"
"1.12324","2020.62","0.7294","0.014588","33.7"
"1.1366","2026.86","0.7384","0.014768","34.1"
"1.14992","2033.06","0.7477","0.014954","34.5"
"1.16329","2039.51","0.7556","0.015112","34.9"
"1.17661","2045.29","0.7649","0.015298","35.3"
"1.18988","2051.41","0.7715","0.01543","35.7"
"1.2033","2057.34","0.7811","0.015622","36.1"
"1.21653","2062.59","0.7918","0.015836","36.5"
"1.22985","2067.95","0.7974","0.015948","36.9"
"1.24321","2073.65","0.8074","0.016148","37.3"
"1.25658","2079.08","0.8137","0.016274","37.7"
"1.2699","2084.37","0.8249","0.016498","38.1"
"1.28327","2089.84","0.8309","0.016618","38.5"
"1.29663","2094.78","0.8404","0.016808","38.9"
"1.30995","2100.25","0.8499","0.016998","39.3"
"1.32327","2105.16","0.8561","0.017122","39.7"
"1.33655","2110.08","0.8655","0.01731","40.1"
"1.34987","2114.61","0.873","0.01746","40.5"
"1.36319","2119.3","0.8828","0.017656","40.9"
"1.37651","2123.83","0.892","0.01784","41.3"
"1.38992","2128.79","0.8995","0.01799","41.7"
"1.40324","2133.3","0.9092","0.018184","42.1"
"1.41656","2138.13","0.9172","0.018344","42.5"
"1.42998","2142.65","0.9261","0.018522","42.9"
"1.44325","2146.84","0.936","0.01872","43.3"
"1.45662","2151.22","0.9434","0.018868","43.7"
"1.46994","2155.47","0.9525","0.01905","44.1"
"1.48326","2159.35","0.9598","0.019196","44.5"
"1.49653","2163.34","0.9681","0.019362","44.9"
"1.5099","2167.29","0.9788","0.019576","45.3"
"1.52322","2171.57","0.9851","0.019702","45.7"
"1.53659","2175.55","0.9949","0.019898","46.1"
"1.54995","2179.86","1.0025","0.02005","46.5"
"1.56327","2183.51","1.0118","0.020236","46.9"
"1.57659","2187.11","1.0217","0.020434","47.3"
"1.58991","2191.36","1.0274","0.020548","47.7"
"1.60323","2194.88","1.038","0.02076","48.1"
"1.6166","2199.16","1.0446","0.020892","48.5"
"1.62987","2202.38","1.0539","0.021078","48.9"
"1.64319","2206.09","1.0609","0.021218","49.3"
"1.65656","2209.64","1.0707","0.021414","49.7"
"1.66988","2213.25","1.08","0.0216","50.1"
"1.68325","2216.96","1.0873","0.021746","50.5"
"1.69662","2220.44","1.0975","0.02195","50.9"
"1.70998","2223.92","1.1044","0.022088","51.3"
"1.72326","2227.15","1.1143","0.022286","51.7"
"1.73662","2230.81","1.1243","0.022486","52.1"
"1.74994","2233.99","1.1303","0.022606","52.5"
"1.76322","2237.26","1.1402","0.022804","52.9"
"1.77658","2240.81","1.1473","0.022946","53.3"
"1.78986","2243.83","1.158","0.02316","53.7"
"1.80322","2247.2","1.1667","0.023334","54.1"
"1.81659","2250.35","1.1741","0.023482","54.5"
"1.82991","2253.6","1.1844","0.023688","54.9"
"1.84328","2257.03","1.1911","0.023822","55.3"
"1.8566","2260.26","1.2016","0.024032","55.7"
"1.86992","2263.13","1.2104","0.024208","56.1"
"1.88324","2266.13","1.2176","0.024352","56.5"
"1.89656","2269.07","1.2273","0.024546","56.9"
"1.90983","2271.8","1.2345","0.02469","57.3"
"1.9232","2275.13","1.2434","0.024868","57.7"
"1.93657","2278.03","1.251","0.02502","58.1"
"1.94989","2281","1.2599","0.025198","58.5"
"1.9633","2284.39","1.2697","0.025394","58.9"
"1.97662","2287.15","1.2778","0.025556","59.3"
"1.98994","2290.18","1.2866","0.025732","59.7"
"2.00331","2293.33","1.2967","0.025934","60.1"
"2.01658","2295.91","1.3049","0.026098","60.5"
"2.0299","2298.74","1.3143","0.026286","60.9"
"2.04322","2301.43","1.3209","0.026418","61.3"
"2.05654","2304.19","1.3295","0.02659","61.7"
"2.06986","2306.94","1.3403","0.026806","62.1"
"2.08323","2309.7","1.3468","0.026936","62.5"
"2.0966","2312.57","1.3573","0.027146","62.9"
"2.10992","2315.56","1.3641","0.027282","63.3"
"2.12328","2318.26","1.3731","0.027462","63.7"
"2.13656","2320.76","1.3808","0.027616","64.1"
"2.14992","2323.69","1.3904","0.027808","64.5"
"2.16324","2326.12","1.4005","0.02801","64.9"
"2.17652","2328.64","1.4069","0.028138","65.3"
"2.18989","2331.54","1.417","0.02834","65.7"
"2.20321","2334.14","1.4242","0.028484","66.1"
"2.21653","2336.68","1.4339","0.028678","66.5"
"2.22994","2339.57","1.4428","0.028856","66.9"
"2.24326","2342.08","1.45","0.029","67.3"
"2.25663","2344.78","1.4615","0.02923","67.7"
"2.26995","2347.47","1.4676","0.029352","68.1"
"2.28327","2349.99","1.4772","0.029544","68.5"
"2.29659","2352.31","1.4865","0.02973","68.9"
"2.30991","2354.77","1.4939","0.029878","69.3"
"2.32323","2357.34","1.5037","0.030074","69.7"
"2.33655","2359.76","1.5113","0.030226","70.1"
"2.34992","2362.46","1.5206","0.030412","70.5"
"2.36319","2364.75","1.5298","0.030596","70.9"
"2.3766","2367.52","1.5384","0.030768","71.3"
"2.38992","2369.76","1.5459","0.030918","71.7"
"2.40324","2372.03","1.5527","0.031054","72.1"
"2.41661","2374.75","1.5638","0.031276","72.5"
"2.42993","2377.01","1.5699","0.031398","72.9"
"2.44325","2379.63","1.5794","0.031588","73.3"
"2.45657","2381.82","1.5897","0.031794","73.7"
"2.46989","2384.34","1.5956","0.031912","74.1"
"2.48316","2386.52","1.6068","0.032136","74.5"
"2.49658","2388.96","1.6162","0.032324","74.9"
"2.5099","2391.26","1.6249","0.032498","75.3"
"2.52322","2393.48","1.6338","0.032676","75.7"
"2.53663","2396.53","1.6409","0.032818","76.1"
"2.54995","2398.5","1.6506","0.033012","76.5"
"2.56323","2400.78","1.6591","0.033182","76.9"
"2.57659","2403.16","1.6689","0.033378","77.3"
"2.58987","2405.3","1.6772","0.033544","77.7"
"2.60319","2407.64","1.6847","0.033694","78.1"
"2.61655","2409.54","1.6933","0.033866","78.5"
"2.62987","2411.91","1.7021","0.034042","78.9"
"2.64324","2414.11","1.7112","0.034224","79.3"
"2.65661","2416.71","1.7211","0.034422","79.7"
"2.66998","2419.14","1.7284","0.034568","80.1"
"2.6833","2421.4","1.7381","0.034762","80.5"
"2.69662","2423.47","1.7451","0.034902","80.9"
"2.70989","2425.45","1.7547","0.035094","81.3"
"2.72321","2427.87","1.7646","0.035292","81.7"
"2.73653","2429.76","1.7712","0.035424","82.1"
"2.74985","2431.79","1.781","0.03562","82.5"
"2.76322","2434.33","1.7884","0.035768","82.9"
"2.77654","2436.5","1.7979","0.035958","83.3"
"2.7899","2438.48","1.8071","0.036142","83.7"
"2.80327","2441","1.8154","0.036308","84.1"
"2.81659","2442.89","1.8244","0.036488","84.5"
"2.82991","2445.2","1.8317","0.036634","84.9"
"2.84328","2447.18","1.8408","0.036816","85.3"
"2.8566","2449.38","1.8475","0.03695","85.7"
"2.86987","2451.22","1.8582","0.037164","86.1"
"2.88324","2453.52","1.8663","0.037326","86.5"
"2.89656","2455.3","1.8751","0.037502","86.9"
"2.90988","2457.7","1.8832","0.037664","87.3"
"2.92329","2460.04","1.8921","0.037842","87.7"
"2.93657","2461.89","1.9006","0.038012","88.1"
"2.94993","2464.13","1.9099","0.038198","88.5"
"2.96325","2465.88","1.9187","0.038374","88.9"
"2.97657","2468.01","1.9272","0.038544","89.3"
"2.98994","2470.08","1.9345","0.03869","89.7"
"3.00322","2472.07","1.9445","0.03889","90.1"
"3.01654","2474.14","1.9535","0.03907","90.5"
"3.02986","2476.15","1.9608","0.039216","90.9"
"3.04322","2478.25","1.9711","0.039422","91.3"
"3.05654","2480.06","1.9777","0.039554","91.7"
"3.06996","2482.26","1.988","0.03976","92.1"
"3.08328","2484.32","1.9973","0.039946","92.5"
"3.0966","2486.16","2.1655","0.04331","92.9"
"3.11001","2488.62","2.1766","0.043532","93.3"
"3.12328","2490.39","2.1832","0.043664","93.7"
"3.13656","2492.19","2.1961","0.043922","94.1"
"3.14993","2494.23","2.2037","0.044074","94.5"
"3.1632","2496.05","2.2151","0.044302","94.9"
"3.17657","2498.04","2.2216","0.044432","95.3"
"3.18989","2500.17","2.2304","0.044608","95.7"
"3.20325","2502.03","2.2405","0.04481","96.1"
"3.21657","2504.12","2.2492","0.044984","96.5"
"3.22994","2506.12","2.2613","0.045226","96.9"
"3.24326","2507.88","2.2712","0.045424","97.3"
"3.25658","2510.1","2.277","0.04554","97.7"
"3.2699","2511.99","2.291","0.04582","98.1"
"3.28317","2513.88","2.2982","0.045964","98.5"
"3.29654","2515.63","2.303","0.04606","98.9"
"3.30986","2517.19","2.3184","0.046368","99.3"
"3.32318","2519.19","2.3275","0.04655","99.7"
"3.3366","2521.68","2.3354","0.046708","100.1"
"3.34992","2523.34","2.3423","0.046846","100.5"
"3.36328","2525.39","2.3538","0.047076","100.9"
"3.37665","2527.08","2.3633","0.047266","101.3"
"3.38992","2529.08","2.3748","0.047496","101.7"
"3.40324","2530.77","2.3835","0.04767","102.1"
"3.41661","2532.57","2.3919","0.047838","102.5"
"3.42988","2534.4","2.4004","0.048008","102.9"
"3.4432","2536.35","2.4112","0.048224","103.3"
"3.45662","2538.5","2.4217","0.048434","103.7"
"3.46989","2540.24","2.431","0.04862","104.1"
"3.48326","2541.97","2.4368","0.048736","104.5"
"3.49663","2543.86","2.4485","0.04897","104.9"
"3.5099","2545.61","2.4607","0.049214","105.3"
"3.52327","2547.41","2.4669","0.049338","105.7"
"3.53659","2549.11","2.4758","0.049516","106.1"
"3.54986","2551","2.4863","0.049726","106.5"
"3.56323","2552.59","2.4948","0.049896","106.9"
"3.57655","2554.39","2.506","0.05012","107.3"
"3.58987","2556.41","2.5099","0.050198","107.7"
"3.60323","2558.11","2.5221","0.050442","108.1"
"3.6166","2560.05","2.5338","0.050676","108.5"
"3.62992","2561.68","2.5407","0.050814","108.9"
"3.64329","2563.48","2.5505","0.05101","109.3"
"3.65661","2565.11","2.5598","0.051196","109.7"
"3.66993","2566.99","2.5694","0.051388","110.1"
"3.6833","2568.94","2.5781","0.051562","110.5"
"3.69657","2570.45","2.5905","0.05181","110.9"
"3.70989","2572.09","2.6028","0.052056","111.3"
"3.72321","2573.74","2.61","0.0522","111.7"
"3.73653","2575.43","2.6209","0.052418","112.1"
"3.7499","2577.2","2.6264","0.052528","112.5"
"3.76326","2578.75","2.6388","0.052776","112.9"
"3.77663","2580.69","2.6472","0.052944","113.3"
"3.78991","2582.4","2.659","0.05318","113.7"
"3.80327","2584.28","2.6685","0.05337","114.1"
"3.81655","2585.64","2.6769","0.053538","114.5"
"3.82987","2587.61","2.6887","0.053774","114.9"
"3.84323","2589.23","2.6955","0.05391","115.3"
"3.85651","2590.8","2.7083","0.054166","115.7"
"3.86992","2592.35","2.7162","0.054324","116.1"
"3.88324","2594.29","2.7241","0.054482","116.5"
"3.89656","2595.86","2.7378","0.054756","116.9"
"3.90997","2598.11","2.7414","0.054828","117.3"
"3.92329","2599.52","2.7547","0.055094","117.7"
"3.93661","2601.38","2.7669","0.055338","118.1"
"3.94994","2602.86","2.7744","0.055488","118.5"
"3.96326","2604.38","2.7832","0.055664","118.9"
"3.97653","2606.14","2.7915","0.05583","119.3"
"3.9899","2607.61","2.7992","0.055984","119.7"
"4.00322","2608.97","2.8147","0.056294","120.1"
"4.01654","2610.91","2.8198","0.056396","120.5"
"4.02995","2612.46","2.8355","0.05671","120.9"
"4.04322","2614.01","2.84","0.0568","121.3"
"4.05659","2615.72","2.8535","0.05707","121.7"
"4.06996","2617.19","2.8638","0.057276","122.1"
"4.08323","2618.79","2.8675","0.05735","122.5"
"4.0966","2620.66","2.8794","0.057588","122.9"
"4.10987","2621.86","2.8902","0.057804","123.3"
"4.12319","2623.55","2.8978","0.057956","123.7"
"4.13656","2625.08","2.9125","0.05825","124.1"
"4.14988","2626.77","2.9178","0.058356","124.5"
"4.16325","2628.43","2.9287","0.058574","124.9"
"4.17661","2630.04","2.9381","0.058762","125.3"
"4.18993","2631.56","2.9485","0.05897","125.7"
"4.20325","2632.86","2.9566","0.059132","126.1"
"4.21662","2634.63","2.9684","0.059368","126.5"
"4.22994","2635.91","2.9774","0.059548","126.9"
"4.24321","2637.16","2.9865","0.05973","127.3"
"4.25658","2638.84","2.9945","0.05989","127.7"
"4.26986","2640.34","3.0044","0.060088","128.1"
"4.28322","2642.11","3.0137","0.060274","128.5"
"4.29659","2643.67","3.0287","0.060574","128.9"
"4.30991","2645.03","3.0343","0.060686","129.3"
"4.32328","2646.68","3.0431","0.060862","129.7"
"4.3366","2648.15","3.0505","0.06101","130.1"
"4.34996","2649.74","3.0621","0.061242","130.5"
"4.36324","2651.29","3.0728","0.061456","130.9"
"4.37656","2652.64","3.0798","0.061596","131.3"
"4.38988","2653.97","3.0904","0.061808","131.7"
"4.4032","2655.43","3.097","0.06194","132.1"
"4.41656","2656.67","3.1105","0.06221","132.5"
"4.42984","2658.23","3.1195","0.06239","132.9"
"4.4433","2659.86","3.1281","0.062562","133.3"
"4.45662","2661.35","3.1397","0.062794","133.7"
"4.46994","2662.97","3.143","0.06286","134.1"
"4.48331","2664.51","3.157","0.06314","134.5"
"4.49658","2665.79","3.1652","0.063304","134.9"
"4.5099","2667.11","3.1744","0.063488","135.3"
"4.52322","2668.6","3.1831","0.063662","135.7"
"4.53654","2669.57","3.193","0.06386","136.1"
"4.54986","2671","3.2011","0.064022","136.5"
"4.56327","2672.51","3.2118","0.064236","136.9"
"4.57659","2674.21","3.2204","0.064408","137.3"
"4.58996","2675.76","3.2323","0.064646","137.7"
"4.60333","2677.14","3.2407","0.064814","138.1"
"4.6166","2678.38","3.251","0.06502","138.5"
"4.62992","2679.93","3.259","0.06518","138.9"
"4.64324","2681.21","3.2695","0.06539","139.3"
"4.65652","2682.27","3.2788","0.065576","139.7"
"4.66988","2683.74","3.2882","0.065764","140.1"
"4.6832","2685.01","3.2991","0.065982","140.5"
"4.69652","2686.44","3.305","0.0661","140.9"
"4.70989","2688.09","3.3138","0.066276","141.3"
"4.72326","2689.57","3.3258","0.066516","141.7"
"4.73662","2690.97","3.3336","0.066672","142.1"
"4.74994","2692.55","3.3443","0.066886","142.5"
"4.76331","2693.06","3.3518","0.067036","142.9"
"4.77659","2694.36","3.3644","0.067288","143.3"
"4.78991","2695.78","3.3745","0.06749","143.7"
"4.80323","2697.12","3.3803","0.067606","144.1"
"4.81655","2698.38","3.3919","0.067838","144.5"
"4.82991","2699.68","3.3968","0.067936","144.9"
"4.84323","2701.22","3.4076","0.068152","145.3"
"4.8566","2702.58","3.4207","0.068414","145.7"
"4.86992","2703.84","3.4268","0.068536","146.1"
"4.88324","2705.12","3.437","0.06874","146.5"
"4.89661","2706.57","3.4466","0.068932","146.9"
"4.90993","2707.75","3.4572","0.069144","147.3"
"4.92325","2708.88","3.4681","0.069264","147.7"
"4.93652","2710.06","3.4755","0.06951","148.1"
"4.94984","2711.44","3.4851","0.069702","148.5"
"4.96316","2712.75","3.4932","0.069864","148.9"
"4.97658","2714.19","3.5027","0.070054","149.3"
"4.9899","2715.36","3.509","0.07018","149.7"
"5.00322","2716.54","3.5214","0.070428","150.1"
"5.01668","2718.08","3.5309","0.070618","150.5"
"5.02995","2719.16","3.5361","0.070722","150.9"
"5.04327","2720.51","3.546","0.07092","151.3"
"5.05664","2722.13","3.5582","0.071164","151.7"
"5.06991","2723.01","3.5669","0.071338","152.1"
"5.08323","2723.98","3.577","0.07154","152.5"
"5.09655","2725.47","3.5825","0.07165","152.9"
"5.10987","2726.21","3.589","0.07178","153.3"
"5.12324","2727.49","3.6025","0.07205","153.7"
"5.13661","2729.27","3.6122","0.072244","154.1"
"5.14993","2730.36","3.621","0.07242","154.5"
"5.16325","2731.77","3.6287","0.072574","154.9"
"5.17661","2732.93","3.6381","0.072762","155.3"
"5.18989","2733.76","3.6467","0.072934","155.7"
"5.20321","2734.92","3.6537","0.073074","156.1"
"5.21653","2735.98","3.6644","0.073288","156.5"
"5.22985","2737.05","3.6768","0.073536","156.9"
"5.24322","2738.62","3.6851","0.073702","157.3"
"5.25654","2739.34","3.6944","0.073888","157.7"
"5.26995","2741.13","3.7027","0.074054","158.1"
"5.28332","2742.58","3.709","0.07418","158.5"
"5.29664","2743.66","3.7201","0.074402","158.9"
"5.30996","2744.81","3.7319","0.074638","159.3"
"5.32328","2746.1","3.7385","0.07477","159.7"
"5.3366","2746.79","3.7458","0.074916","160.1"
"5.34987","2747.95","3.7579","0.075158","160.5"
"5.36324","2749.21","3.7646","0.075292","160.9"
"5.37656","2750.02","3.7747","0.075494","161.3"
"5.38988","2751.33","3.785","0.0757","161.7"
"5.40325","2752.72","3.7931","0.075862","162.1"
"5.41657","2753.89","3.8005","0.07601","162.5"
"5.42993","2755.12","3.8113","0.076226","162.9"
"5.44325","2755.54","3.8218","0.076436","163.3"
"5.45657","2756.34","3.8265","0.07653","163.7"
"5.46989","2757.25","3.8434","0.076868","164.1"
"5.48321","2758.43","3.8498","0.076996","164.5"
"5.49653","2759.73","3.8557","0.077114","164.9"
"5.5099","2760.87","3.866","0.07732","165.3"
"5.52322","2761.87","3.8723","0.077446","165.7"
"5.53654","2763.14","3.8853","0.077706","166.1"
"5.54995","2764.39","3.8918","0.077836","166.5"
"5.56327","2765.62","3.9046","0.078092","166.9"
"5.5766","2766.72","3.9107","0.078214","167.3"
"5.59001","2767.71","3.9193","0.078386","167.7"
"5.60324","2768.71","3.9292","0.078584","168.1"
"5.61656","2769.8","3.9352","0.078704","168.5"
"5.62992","2770.76","3.9497","0.078994","168.9"
"5.6432","2771.85","3.9589","0.079178","169.3"
"5.65656","2772.95","3.9644","0.079288","169.7"
"5.66988","2774","3.97","0.0794","170.1"
"5.68325","2774.94","3.9837","0.079674","170.5"
"5.69657","2775.89","3.9904","0.079808","170.9"
"5.70994","2777.02","4.0018","0.080036","171.3"
"5.72326","2778.27","4.0108","0.080216","171.7"
"5.73658","2779.25","4.0195","0.08039","172.1"
"5.74995","2780.13","4.0295","0.08059","172.5"
"5.76317","2780.97","4.038","0.08076","172.9"
"5.77654","2782.09","4.0445","0.08089","173.3"
"5.78986","2782.79","4.054","0.08108","173.7"
"5.80323","2783.84","4.065","0.0813","174.1"
"5.81659","2785.1","4.0762","0.081524","174.5"
"5.82991","2786.1","4.0825","0.08165","174.9"
"5.84328","2787.34","4.09","0.0818","175.3"
"5.85665","2788.59","4.0964","0.081928","175.7"
"5.86992","2789.33","4.1093","0.082186","176.1"
"5.88324","2790.19","4.1191","0.082382","176.5"
"5.89656","2791.22","4.126","0.08252","176.9"
"5.90988","2791.89","4.1396","0.082686","177.3"
"5.9232","2792.94","4.1445","0.08289","177.7"
"5.93657","2793.96","4.1545","0.08309","178.1"
"5.94989","2794.9","4.1649","0.083298","178.5"
"5.96326","2796.17","4.1755","0.08351","178.9"
"5.97667","2797.02","4.1829","0.083658","179.3"
"5.98994","2798.12","4.1926","0.083852","179.7"
"6.00326","2799.28","4.2006","0.084012","180.1"
"6.01658","2799.66","4.2065","0.08413","180.5"
"6.02986","2800.82","4.2178","0.084356","180.9"
"6.04323","2801.8","4.2271","0.084542","181.3"
"6.05655","2802.72","4.2399","0.084798","181.7"
"6.06987","2803.84","4.2474","0.084948","182.1"
"6.08323","2804.81","4.253","0.08506","182.5"
"6.0966","2805.96","4.2658","0.085316","182.9"
"6.10992","2806.65","4.2739","0.085478","183.3"
"6.12329","2807.59","4.2852","0.085704","183.7"
"6.13661","2808.23","4.2951","0.085902","184.1"
"6.14988","2809.29","4.3004","0.086008","184.5"
"6.16329","2810.02","4.311","0.08622","184.9"
"6.17657","2810.84","4.316","0.08632","185.3"
"6.18989","2811.76","4.3302","0.086604","185.7"
"6.20326","2812.96","4.3402","0.086804","186.1"
"6.21658","2813.81","4.3462","0.086924","186.5"
"6.2299","2814.59","4.3546","0.087092","186.9"
"6.24326","2815.53","4.361","0.08722","187.3"
"6.25663","2816.34","4.3764","0.087528","187.7"
"6.26995","2817.3","4.3825","0.08765","188.1"
"6.28327","2818.04","4.3925","0.08785","188.5"
"6.29659","2818.9","4.4045","0.08809","188.9"
"6.30991","2819.84","4.411","0.08822","189.3"
"6.32323","2820.55","4.4184","0.088368","189.7"
"6.3365","2821.39","4.4285","0.08851","190.1"
"6.34992","2822.58","4.4364","0.088728","190.5"
"6.36324","2823.25","4.4466","0.088932","190.9"
"6.37656","2824.11","4.457","0.08914","191.3"
"6.38997","2825.18","4.4658","0.089316","191.7"
"6.40329","2825.99","4.473","0.08946","192.1"
"6.41661","2826.92","4.4838","0.089676","192.5"
"6.42993","2827.76","4.4946","0.089892","192.9"
"6.44325","2828.67","4.5014","0.090028","193.3"
"6.45653","2829.06","4.5091","0.090182","193.7"
"6.46989","2830.35","4.5167","0.090334","194.1"
"6.48321","2831.02","4.5274","0.090548","194.5"
"6.49658","2831.82","4.5364","0.090728","194.9"
"6.50999","2833.15","4.5458","0.090916","195.3"
"6.52327","2833.65","4.5572","0.091144","195.7"
"6.53659","2834.47","4.5641","0.091282","196.1"
"6.54996","2835.53","4.5729","0.091458","196.5"
"6.56323","2836.02","4.5821","0.091642","196.9"
"6.57655","2836.95","4.59","0.0918","197.3"
"6.58987","2837.48","4.6007","0.092014","197.7"
"6.60319","2838.38","4.6076","0.092152","198.1"
"6.61656","2839.22","4.62","0.0924","198.5"
"6.62988","2839.8","4.627","0.09254","198.9"
"6.64324","2840.78","4.6372","0.092744","199.3"
"6.65661","2841.9","4.6443","0.092886","199.7"
"6.66998","2842.56","4.6531","0.093062","200.1"
"6.68325","2843.24","4.665","0.0933","200.5"
"6.69662","2844.24","4.6776","0.093552","200.9"
"6.70994","2844.78","4.6835","0.09367","201.3"
"6.72321","2845.52","4.6929","0.093858","201.7"
"6.73663","2846.42","4.6992","0.093984","202.1"
"6.7499","2847.05","4.7086","0.094172","202.5"
"6.76322","2848.01","4.7199","0.094398","202.9"
"6.77659","2848.56","4.729","0.09458","203.3"
"6.78991","2849.25","4.7379","0.094758","203.7"
"6.80327","2850.26","4.7439","0.094878","204.1"
"6.81659","2850.52","4.7574","0.095148","204.5"
"6.82991","2851.46","4.7629","0.095258","204.9"
"6.84323","2851.85","4.7745","0.09549","205.3"
"6.85656","2852.55","4.7874","0.095748","205.7"
"6.86988","2853.17","4.7935","0.09587","206.1"
"6.8832","2854.18","4.8035","0.09607","206.5"
"6.89656","2854.91","4.8131","0.096262","206.9"
"6.90988","2855.46","4.8225","0.09645","207.3"
"6.9233","2856.57","4.8323","0.096646","207.7"
"6.93662","2857.23","4.8409","0.096818","208.1"
"6.94994","2857.81","4.8485","0.09697","208.5"
"6.9633","2858.86","4.8575","0.09715","208.9"
"6.97662","2859.49","4.868","0.09736","209.3"
"6.98994","2859.44","4.8798","0.097596","209.7"
"7.00322","2860.17","4.8919","0.097838","210.1"
"7.01654","2860.77","4.8943","0.097886","210.5"
"7.02986","2861.26","4.909","0.09818","210.9"
"7.04323","2862.2","4.9175","0.09835","211.3"
"7.05659","2862.73","4.9254","0.098508","211.7"
"7.06991","2863.36","4.9359","0.098718","212.1"
"7.08328","2864.18","4.9442","0.098884","212.5"
"7.0966","2864.7","4.9536","0.099072","212.9"
"7.10992","2865.49","4.9628","0.099256","213.3"
"7.12324","2866.33","4.9718","0.099436","213.7"
"7.13651","2866.95","4.9816","0.099632","214.1"
"7.14988","2867.64","4.9939","0.099878","214.5"
"7.1632","2868.03","4.9976","0.099952","214.9"
"7.17657","2868.94","5.0115","0.10023","215.3"
"7.18994","2869.77","5.0155","0.10031","215.7"
"7.20326","2870.55","5.0284","0.100568","216.1"
"7.21662","2871.13","5.0419","0.100838","216.5"
"7.22999","2872.04","5.047","0.10094","216.9"
"7.24326","2872.61","5.0573","0.101146","217.3"
"7.25658","2873.14","5.0675","0.10135","217.7"
"7.2699","2873.92","5.0759","0.101518","218.1"
"7.28322","2874.28","5.0877","0.101754","218.5"
"7.29654","2874.89","5.0943","0.101886","218.9"
"7.30991","2875.45","5.106","0.10212","219.3"
"7.32323","2876.21","5.113","0.10226","219.7"
"7.3366","2877.12","5.1274","0.102548","220.1"
"7.34992","2877.54","5.1351","0.102702","220.5"
"7.36324","2878.18","5.1467","0.102934","220.9"
"7.37661","2878.76","5.1582","0.103164","221.3"
"7.38993","2879.28","5.161","0.10322","221.7"
"7.40325","2880.01","5.1734","0.103468","222.1"
"7.41657","2880.21","5.1862","0.103724","222.5"
"7.42989","2880.98","5.1946","0.103892","222.9"
"7.44321","2881.47","5.2061","0.104122","223.3"
"7.45657","2882.33","5.2141","0.104282","223.7"
"7.46994","2883.1","5.225","0.1045","224.1"
"7.48321","2883.18","5.2342","0.104684","224.5"
"7.49668","2883.94","5.2453","0.104906","224.9"
"7.50995","2884.56","5.2538","0.105076","225.3"
"7.52322","2885.03","5.2634","0.105268","225.7"
"7.53659","2885.92","5.2752","0.105504","226.1"
"7.54991","2886.48","5.2849","0.105698","226.5"
"7.56323","2886.9","5.296","0.10592","226.9"
"7.57655","2887.57","5.3051","0.106102","227.3"
"7.58987","2887.77","5.3179","0.106358","227.7"
"7.60324","2887.76","5.3294","0.106588","228.1"
"7.6166","2888.53","5.3369","0.106738","228.5"
"7.62992","2889.52","5.3473","0.106946","228.9"
"7.64329","2890","5.3576","0.107152","229.3"
"7.65666","2890.98","5.3673","0.107346","229.7"
"7.66989","2891.3","5.3741","0.107482","230.1"
"7.68325","2891.91","5.3836","0.107672","230.5"
"7.69653","2892.47","5.4039","0.108078","230.9"
"7.70985","2892.94","5.413","0.10826","231.3"
"7.72321","2893.8","5.4215","0.10843","231.7"
"7.73653","2893.95","5.429","0.10858","232.1"
"7.7499","2894.89","5.4392","0.108784","232.5"
"7.76327","2895.6","5.4486","0.108972","232.9"
"7.77659","2896.53","5.4613","0.109226","233.3"
"7.78995","2896.78","5.4731","0.109462","233.7"
"7.80327","2897.2","5.4826","0.109652","234.1"
"7.8166","2897.82","5.4902","0.109804","234.5"
"7.82987","2898.22","5.5031","0.110062","234.9"
"7.84324","2898.76","5.5146","0.110292","235.3"
"7.85656","2899.29","5.5247","0.110494","235.7"
"7.86988","2900.07","5.5354","0.110708","236.1"
"7.88329","2900.79","5.5452","0.110904","236.5"
"7.89661","2901.26","5.5539","0.111078","236.9"
"7.90998","2902.12","5.5633","0.111266","237.3"
"7.9233","2902.56","5.5709","0.111418","237.7"
"7.93657","2902.86","5.5837","0.111674","238.1"
"7.94989","2902.48","5.5953","0.111906","238.5"
"7.96321","2902.85","5.6032","0.112064","238.9"
"7.97653","2903.4","5.6097","0.112194","239.3"
"7.98985","2904.27","5.6204","0.112408","239.7"
"8.00322","2904.95","5.6334","0.112668","240.1"
"8.01654","2905.26","5.6436","0.112872","240.5"
"8.02995","2906.1","5.6564","0.113128","240.9"
"8.04327","2906.71","5.6666","0.113332","241.3"
"8.05659","2907.26","5.6747","0.113494","241.7"
"8.06996","2907.71","5.6835","0.11367","242.1"
"8.08323","2908.04","5.6921","0.113842","242.5"
"8.09655","2908.52","5.7061","0.114122","242.9"
"8.10992","2909.19","5.7098","0.114196","243.3"
"8.12324","2909.72","5.7264","0.114528","243.7"
"8.13656","2910.36","5.7364","0.114728","244.1"
"8.14988","2910.95","5.7494","0.114988","244.5"
"8.16325","2911.41","5.7581","0.115162","244.9"
"8.17657","2911.98","5.7681","0.115362","245.3"
"8.18994","2912.38","5.7785","0.11557","245.7"
"8.20326","2913.05","5.789","0.11578","246.1"
"8.21658","2913.41","5.795","0.1159","246.5"
"8.2299","2913.99","5.8082","0.116164","246.9"
"8.24317","2914.38","5.813","0.11626","247.3"
"8.25654","2915.01","5.8283","0.116566","247.7"
"8.26986","2915.14","5.8371","0.116742","248.1"
"8.28318","2915.74","5.8493","0.116986","248.5"
"8.29659","2916.37","5.8615","0.11723","248.9"
"8.30991","2916.91","5.867","0.11734","249.3"
"8.32328","2917.46","5.876","0.11752","249.7"
"8.33665","2918.19","5.8873","0.117746","250.1"
"8.34997","2918.39","5.8949","0.117898","250.5"
"8.36324","2919.08","5.9032","0.118064","250.9"
"8.37661","2919.45","5.9167","0.118334","251.3"
"8.38988","2919.83","5.9279","0.118558","251.7"
"8.4032","2920.21","5.9371","0.118742","252.1"
"8.41657","2920.8","5.9403","0.118806","252.5"
"8.42989","2921.12","5.9588","0.119176","252.9"
"8.44325","2921.65","5.9652","0.119304","253.3"
"8.45662","2922.44","5.9736","0.119472","253.7"
"8.46994","2922.8","5.9843","0.119686","254.1"
"8.48326","2923.34","5.9955","0.11991","254.5"
"8.49658","2923.06","5.9999","0.119998","254.9"
"8.50986","2923.35","6.0107","0.120214","255.3"
"8.52322","2923.82","6.0227","0.120454","255.7"
"8.53654","2924.12","6.0313","0.120626","256.1"
"8.54986","2924.76","6.0332","0.120664","256.5"
"8.56328","2925.5","6.0473","0.120946","256.9"
"8.57664","2926.08","6.0595","0.12119","257.3"
"8.58992","2926.51","6.069","0.12138","257.7"
"8.60328","2927.32","6.0763","0.121526","258.1"
"8.6166","2927.6","6.0867","0.121734","258.5"
"8.62992","2928.1","6.0981","0.121962","258.9"
"8.64329","2928.66","6.1094","0.122188","259.3"
"8.65657","2928.72","6.1169","0.122338","259.7"
"8.66989","2929.25","6.1264","0.122528","260.1"
"8.68325","2929.77","6.1342","0.122684","260.5"
"8.69657","2930.15","6.1471","0.122942","260.9"
"8.70994","2930.71","6.1511","0.123022","261.3"
"8.72326","2931.28","6.1642","0.123284","261.7"
"8.73663","2931.73","6.17","0.1234","262.1"
"8.7499","2932.14","6.1834","0.123668","262.5"
"8.76327","2932.26","6.1949","0.123898","262.9"
"8.77654","2932.85","6.1993","0.123986","263.3"
"8.78991","2933.36","6.2116","0.124232","263.7"
"8.80323","2933.65","6.2186","0.124372","264.1"
"8.8165","2934.17","6.2278","0.124556","264.5"
"8.82992","2934.85","6.2366","0.124732","264.9"
"8.84324","2935.22","6.2522","0.125044","265.3"
"8.85656","2935.88","6.2619","0.125238","265.7"
"8.86997","2936.33","6.2691","0.125382","266.1"
"8.88329","2936.79","6.2767","0.125534","266.5"
"8.89661","2937.4","6.2893","0.125786","266.9"
"8.90993","2938","6.2968","0.125936","267.3"
"8.92325","2937.94","6.3112","0.126224","267.7"
"8.93653","2937.88","6.3148","0.126296","268.1"
"8.94989","2938.47","6.3254","0.126508","268.5"
"8.96321","2938.58","6.3349","0.126698","268.9"
"8.97653","2938.92","6.3426","0.126852","269.3"
"8.98995","2939.63","6.3547","0.127094","269.7"
"9.00327","2939.93","6.3598","0.127196","270.1"
"9.01663","2940.57","6.3736","0.127472","270.5"
"9.02995","2941.11","6.3836","0.127672","270.9"
"9.04323","2941.39","6.3877","0.127754","271.3"
"9.05659","2941.93","6.3994","0.127988","271.7"
"9.06987","2942.21","6.4064","0.128128","272.1"
"9.08319","2942.37","6.4189","0.128378","272.5"
"9.09655","2943.02","6.4299","0.128598","272.9"
"9.10988","2943.19","6.4344","0.128688","273.3"
"9.12324","2943.9","6.4511","0.129022","273.7"
"9.13661","2944.51","6.4523","0.129046","274.1"
"9.14998","2945","6.4696","0.129392","274.5"
"9.16325","2945.47","6.472","0.12944","274.9"
"9.17662","2945.83","6.4881","0.129762","275.3"
"9.18994","2946.02","6.4954","0.129908","275.7"
"9.20321","2946.22","6.5012","0.130024","276.1"
"9.21658","2946.66","6.5122","0.130244","276.5"
"9.22985","2947.04","6.5224","0.130448","276.9"
"9.24322","2947.51","6.5274","0.130548","277.3"
"9.25658","2947.91","6.5408","0.130816","277.7"
"9.26995","2948.44","6.5476","0.130952","278.1"
"9.28327","2949.02","6.5564","0.131128","278.5"
"9.29659","2949.28","6.5687","0.131374","278.9"
"9.30996","2949.6","6.5801","0.131602","279.3"
"9.32323","2949.99","6.5899","0.131798","279.7"
"9.33655","2950.32","6.6001","0.132002","280.1"
"9.34987","2950.73","6.6067","0.132134","280.5"
"9.36319","2951.15","6.6147","0.132294","280.9"
"9.37656","2951.68","6.6275","0.13255","281.3"
"9.38988","2951.75","6.6325","0.13265","281.7"
"9.40329","2952.5","6.6383","0.132766","282.1"
"9.41657","2952.43","6.6509","0.133018","282.5"
"9.42989","2953","6.6559","0.133118","282.9"
"9.4433","2953.32","6.669","0.13338","283.3"
"9.45658","2953.7","6.679","0.13358","283.7"
"9.4699","2954.22","6.6891","0.133782","284.1"
"9.48326","2953.28","6.6961","0.133922","284.5"
"9.49654","2953.78","6.7056","0.134112","284.9"
"9.50986","2953.81","6.7107","0.134214","285.3"
"9.52322","2954.3","6.7198","0.134396","285.7"
"9.53659","2954.86","6.7313","0.134626","286.1"
"9.54996","2955.32","6.7413","0.134826","286.5"
"9.56332","2955.95","6.7477","0.134954","286.9"
"9.5766","2956.31","6.7557","0.135114","287.3"
"9.58992","2956.61","6.7675","0.13535","287.7"
"9.60324","2956.87","6.7759","0.135518","288.1"
"9.61651","2957.3","6.7809","0.135618","288.5"
"9.62988","2957.51","6.7913","0.135826","288.9"
"9.6432","2957.5","6.7978","0.135956","289.3"
"9.65652","2958.13","6.8054","0.136108","289.7"
"9.66989","2958.41","6.8127","0.136254","290.1"
"9.68325","2958.6","6.8224","0.136448","290.5"
"9.69662","2958.89","6.835","0.1367","290.9"
"9.70999","2959.33","6.8425","0.13685","291.3"
"9.72331","2959.82","6.8451","0.136902","291.7"
"9.73658","2959.86","6.8523","0.137046","292.1"
"9.7499","2960.36","6.8697","0.137394","292.5"
"9.76322","2960.52","6.8731","0.137462","292.9"
"9.77654","2960.5","6.881","0.13762","293.3"
"9.78996","2961.12","6.8907","0.137814","293.7"
"9.80323","2961.36","6.9032","0.138064","294.1"
"9.8166","2961.91","6.9068","0.138136","294.5"
"9.82996","2962.56","6.9163","0.138326","294.9"
"9.84324","2962.74","6.9231","0.138462","295.3"
"9.8566","2963.28","6.9367","0.138734","295.7"
"9.86992","2963.32","6.9466","0.138932","296.1"
"9.88324","2963.43","6.9493","0.138986","296.5"
"9.89652","2963.76","6.962","0.13924","296.9"
"9.90989","2964.09","6.969","0.13938","297.3"
"9.9232","2964.2","6.9798","0.139596","297.7"
"9.93657","2964.95","6.9859","0.139718","298.1"
"9.94994","2965.13","6.9942","0.139884","298.5"
"9.96326","2965.58","7","0.14","298.9"
"9.97667","2966.16","7.0132","0.140264","299.3"
"9.98995","2966.18","7.0248","0.140496","299.7"
"10.0033","2966.57","7.0294","0.140588","300.1"
"10.0166","2966.93","7.033","0.14066","300.5"
"10.0299","2967.16","7.0473","0.140946","300.9"
"10.0432","2967.54","7.0576","0.141152","301.3"
"10.0565","2967.69","7.06","0.1412","301.7"
"10.0699","2968.19","7.0705","0.14141","302.1"
"10.0832","2968.55","7.0736","0.141472","302.5"
"10.0966","2968.51","7.0804","0.141608","302.9"
"10.1099","2969.05","7.0946","0.141892","303.3"
"10.1232","2969.41","7.1022","0.142044","303.7"
"10.1366","2969.68","7.1139","0.142278","304.1"
"10.1499","2969.88","7.1148","0.142296","304.5"
"10.1633","2970.24","7.1265","0.14253","304.9"
"10.1766","2970.24","7.1365","0.14273","305.3"
"10.1898","2970.48","7.1464","0.142928","305.7"
"10.2032","2970.77","7.152","0.14304","306.1"
"10.2165","2971.09","7.1571","0.143142","306.5"
"10.2299","2971.3","7.1685","0.14337","306.9"
"10.2433","2971.75","7.1737","0.143474","307.3"
"10.2566","2972","7.1864","0.143728","307.7"
"10.27","2972.3","7.1909","0.143818","308.1"
"10.2833","2972.39","7.2014","0.144028","308.5"
"10.2966","2971.11","7.2115","0.14423","308.9"
"10.3099","2970.94","7.2135","0.14427","309.3"
"10.3232","2971.21","7.2247","0.144494","309.7"
"10.3366","2971.21","7.2355","0.14471","310.1"
"10.3499","2971.63","7.2417","0.144834","310.5"
"10.3633","2972.08","7.2505","0.14501","310.9"
"10.3766","2972.47","7.2598","0.145196","311.3"
"10.39","2972.61","7.2654","0.145308","311.7"
"10.4033","2971.85","7.2717","0.145434","312.1"
"10.4166","2971.52","7.2812","0.145624","312.5"
"10.4299","2971.67","7.2914","0.145828","312.9"
"10.4432","2971.98","7.2887","0.145774","313.3"
"10.4565","2972.27","7.297","0.14594","313.7"
"10.4699","2972.45","7.3076","0.146152","314.1"
"10.4833","2972.95","7.3233","0.146466","314.5"
"10.4966","2973.41","7.3246","0.146492","314.9"
"10.51","2973.85","7.3351","0.146702","315.3"
"10.5233","2974.11","7.3377","0.146754","315.7"
"10.5366","2973.94","7.3491","0.146982","316.1"
"10.55","2974.17","7.3548","0.147096","316.5"
"10.5632","2974.35","7.3615","0.14723","316.9"
"10.5766","2974.46","7.3677","0.147354","317.3"
"10.5899","2974.73","7.3782","0.147564","317.7"
"10.6032","2974.76","7.3898","0.147796","318.1"
"10.6166","2975.28","7.389","0.14778","318.5"
"10.6299","2975.24","7.4033","0.148066","318.9"
"10.6432","2975.45","7.4096","0.148192","319.3"
"10.6566","2975.55","7.4147","0.148294","319.7"
"10.6699","2975.88","7.4214","0.148428","320.1"
"10.6833","2975.93","7.4274","0.148548","320.5"
"10.6966","2976.33","7.4389","0.148778","320.9"
"10.7099","2976.47","7.4451","0.148902","321.3"
"10.7232","2976.63","7.4482","0.148964","321.7"
"10.7366","2976.88","7.4596","0.149192","322.1"
"10.7499","2977.08","7.4666","0.149332","322.5"
"10.7632","2977.45","7.4717","0.149434","322.9"
"10.7766","2977.63","7.4884","0.149768","323.3"
"10.7899","2977.95","7.4903","0.149806","323.7"
"10.8033","2977.93","7.494","0.14988","324.1"
"10.8166","2977.91","7.5055","0.15011","324.5"
"10.8299","2978.1","7.5177","0.150354","324.9"
"10.8432","2978.44","7.5272","0.150544","325.3"
"10.8566","2978.73","7.5305","0.15061","325.7"
"10.8699","2978.49","7.532","0.15064","326.1"
"10.8832","2978.07","7.5427","0.150854","326.5"
"10.8966","2978.15","7.5503","0.151006","326.9"
"10.9099","2975.97","7.561","0.15122","327.3"
"10.9233","2974.14","7.5692","0.151384","327.7"
"10.9367","2974.29","7.5724","0.151448","328.1"
"10.9499","2974.18","7.5764","0.151528","328.5"
"10.9633","2974.31","7.5839","0.151678","328.9"
"10.9766","2974.16","7.5869","0.151738","329.3"
"10.9899","2971.29","7.5945","0.15189","329.7"
"11.0032","2970.78","7.6053","0.152106","330.1"
"11.0165","2970.88","7.6094","0.152188","330.5"
"11.0299","2971.08","7.6125","0.15225","330.9"
"11.0432","2971.51","7.6246","0.152492","331.3"
"11.0566","2971.18","7.6316","0.152632","331.7"
"11.0699","2970.47","7.643","0.15286","332.1"
"11.0833","2970.49","7.6456","0.152912","332.5"
"11.0966","2967.62","7.6413","0.152826","332.9"
"11.1099","2965.91","7.6552","0.153104","333.3"
"11.1233","2965.56","7.6624","0.153248","333.7"
"11.1366","2965.33","7.6577","0.153154","334.1"
"11.1499","2964.89","7.6652","0.153304","334.5"
"11.1633","2964.75","7.6693","0.153386","334.9"
"11.1766","2963.36","7.6811","0.153622","335.3"
"11.1899","2960.81","7.6795","0.15359","335.7"
"11.2033","2960.24","7.6778","0.153556","336.1"
"11.2166","2959.39","7.6896","0.153792","336.5"
"11.2299","2959","7.7004","0.154008","336.9"
"11.2433","2954.36","7.6959","0.153918","337.3"
"11.2565","2953.21","7.7037","0.154074","337.7"
"11.2699","2952.64","7.7036","0.154072","338.1"
"11.2832","2952.19","7.7163","0.154326","338.5"
"11.2965","2951.94","7.7157","0.154314","338.9"
"11.3099","2951.7","7.7227","0.154454","339.3"
"11.3232","2950.74","7.7288","0.154576","339.7"
"11.3366","2950.08","7.7331","0.154662","340.1"
"11.35","2948.89","7.7307","0.154614","340.5"
"11.3633","2947.78","7.7339","0.154678","340.9"
"11.3766","2942.73","7.7382","0.154764","341.3"
"11.3899","2939.32","7.7419","0.154838","341.7"
"11.4032","2937.92","7.7449","0.154898","342.1"
"11.4166","2937.35","7.7415","0.15483","342.5"
"11.4299","2936.76","7.7459","0.154918","342.9"
"11.4432","2935.85","7.7545","0.15509","343.3"
"11.4566","2935.35","7.7562","0.155124","343.7"
"11.4699","2934.73","7.7613","0.155226","344.1"
"11.4833","2933.81","7.7586","0.155172","344.5"
"11.4966","2932.76","7.7618","0.155236","344.9"
"11.51","2931.43","7.7703","0.155406","345.3"
"11.5232","2927.12","7.7755","0.15551","345.7"
"11.5366","2922.63","7.7798","0.155596","346.1"
"11.5499","2920.27","7.776","0.15552","346.5"
"11.5632","2914.78","7.7735","0.15547","346.9"
"11.5766","2908.65","7.7807","0.155614","347.3"
"11.5899","2901.59","7.7719","0.155438","347.7"
"11.6032","2896.48","7.7832","0.155664","348.1"
"11.6166","2893.5","7.7836","0.155672","348.5"
"11.63","2891.18","7.7816","0.155632","348.9"
"11.6432","2888.9","7.7849","0.155698","349.3"
"11.6566","2886.82","7.7863","0.155726","349.7"
"11.6699","2884.02","7.7844","0.155688","350.1"
"11.6832","2877.07","7.7859","0.155718","350.5"
"11.6966","2858.96","7.787","0.15574","350.9"
"11.7099","2837.86","7.7825","0.15565","351.3"
"11.7204","-35.5681","7.7786","0.155572","351.599"