File: experimental_data/tensile_specimen_test_data/tensile_test_data/20250312/original_data/SSS 16 03-12-25 16 18 12 下午/数采：横梁, … - (实时值).csv
"文件路径: C:\Users\Lenovo\Desktop\Wayne\20250312\原始数据\SSS 16 03-12-25 16 18 12 下午\数采：横梁, … - (实时值).csv   "
"试验: 拉伸试验（UNIVER）      视频引伸计采集变形-W 1"
"试验运行: SSS 16"
"日期: 2025/3/12 15:58:46"
""
""
"横梁 ","力 ","视频引伸计变形 ","应变 ","时间 "
"mm","N","mm","mm/mm","sec"
"0.0023753","-194.201","0.0029","5.8e-05","0.1"
"0.0264543","-64.7497","0.0573","0.001146","0.8"
"0.0498347","77.494","0.1256","0.002512","1.5"
"0.0731685","225.722","0.1564","0.003128","2.2"
"0.0964557","374.903","0.1892","0.003784","2.9"
"0.119836","523.897","0.2168","0.004336","3.6"
"0.14317","668.953","0.2341","0.004682","4.3"
"0.166457","809.645","0.2553","0.005106","5"
"0.189838","945.658","0.2725","0.00545","5.7"
"0.213125","1075.08","0.2909","0.005818","6.4"
"0.236459","1198.28","0.304","0.00608","7.1"
"0.259886","1315.78","0.3191","0.006382","7.8"
"0.283126","1426.3","0.3356","0.006712","8.5"
"0.30646","1533.01","0.3489","0.006978","9.2"
"0.32984","1635.55","0.3621","0.007242","9.9"
"0.353174","1730.81","0.3731","0.007462","10.6"
"0.376508","1819.12","0.3874","0.007748","11.3"
"0.399842","1898.35","0.3966","0.007932","12"
"0.423176","1963.94","0.4054","0.008108","12.7"
"0.446463","2015.25","0.4126","0.008252","13.4"
"0.469797","2062.21","0.4181","0.008362","14.1"
"0.493177","2105.21","0.4251","0.008502","14.8"
"0.516464","2146.37","0.4307","0.008614","15.5"
"0.539845","2187.14","0.4358","0.008716","16.2"
"0.563179","2226.77","0.4413","0.008826","16.9"
"0.586419","2266.28","0.4465","0.00893","17.6"
"0.609846","2306.05","0.4536","0.009072","18.3"
"0.63318","2344.73","0.4587","0.009174","19"
"0.656467","2383.8","0.4629","0.009258","19.7"
"0.679894","2422.87","0.4691","0.009382","20.4"
"0.703181","2460.96","0.4735","0.00947","21.1"
"0.726469","2498.44","0.4776","0.009552","21.8"
"0.749803","2535.85","0.4842","0.009684","22.5"
"0.773183","2573.51","0.4885","0.00977","23.2"
"0.796517","2611.62","0.4938","0.009876","23.9"
"0.819804","2649.16","0.4992","0.009984","24.6"
"0.843184","2685.83","0.5041","0.010082","25.3"
"0.866472","2722.52","0.5104","0.010208","26"
"0.889805","2759.1","0.5149","0.010298","26.7"
"0.913186","2795.78","0.5209","0.010418","27.4"
"0.936427","2831.57","0.5258","0.010516","28.1"
"0.959853","2866.72","0.5323","0.010646","28.8"
"0.983187","2902.64","0.5376","0.010752","29.5"
"1.00643","2937.92","0.5425","0.010852","30.2"
"1.02985","2973.24","0.5496","0.010992","30.9"
"1.05319","3008.27","0.5549","0.011098","31.6"
"1.07643","3042.23","0.5593","0.011186","32.3"
"1.09986","3077.36","0.5668","0.011336","33"
"1.12319","3111.71","0.5721","0.011442","33.7"
"1.14643","3145.01","0.5773","0.011546","34.4"
"1.16981","3178.59","0.5842","0.011684","35.1"
"1.19319","3211.57","0.5915","0.01183","35.8"
"1.21648","3243.94","0.5969","0.011938","36.5"
"1.23986","3276.92","0.6035","0.01207","37.2"
"1.26319","3309.51","0.6106","0.012212","37.9"
"1.28643","3340.28","0.6158","0.012316","38.6"
"1.30981","3371.71","0.6231","0.012462","39.3"
"1.33319","3402.81","0.6312","0.012624","40"
"1.35644","3432.43","0.6398","0.012796","40.7"
"1.37986","3463.01","0.6466","0.012932","41.4"
"1.40324","3493.19","0.6514","0.013028","42.1"
"1.42644","3521.12","0.6596","0.013192","42.8"
"1.44982","3550.53","0.6665","0.01333","43.5"
"1.4732","3579.1","0.6735","0.01347","44.2"
"1.49648","3606.22","0.684","0.01368","44.9"
"1.51987","3634.07","0.6913","0.013826","45.6"
"1.54315","3660.54","0.6985","0.01397","46.3"
"1.56649","3686.19","0.7051","0.014102","47"
"1.58982","3712.34","0.7147","0.014294","47.7"
"1.61315","3737.47","0.7237","0.014474","48.4"
"1.63649","3761.26","0.7322","0.014644","49.1"
"1.65982","3786.37","0.7415","0.01483","49.8"
"1.6832","3809.45","0.749","0.01498","50.5"
"1.70649","3826.75","0.7559","0.015118","51.2"
"1.72982","3850.9","0.7635","0.01527","51.9"
"1.7532","3873.56","0.7749","0.015498","52.6"
"1.77649","3895.07","0.7837","0.015674","53.3"
"1.79982","3916.8","0.7924","0.015848","54"
"1.82325","3937.67","0.8034","0.016068","54.7"
"1.84645","3956.95","0.814","0.01628","55.4"
"1.86983","3976.08","0.8224","0.016448","56.1"
"1.89316","3995.45","0.8326","0.016652","56.8"
"1.91649","4013.87","0.8456","0.016912","57.5"
"1.93983","4032.1","0.8553","0.017106","58.2"
"1.96316","4049.22","0.8645","0.01729","58.9"
"1.98649","4065.79","0.8768","0.017536","59.6"
"2.00983","4082.23","0.8866","0.017732","60.3"
"2.03316","4098.39","0.8976","0.017952","61"
"2.0565","4114.2","0.9134","0.018268","61.7"
"2.07978","4129.46","0.9242","0.018484","62.4"
"2.10321","4144.24","0.9334","0.018668","63.1"
"2.1265","4158.55","0.9459","0.018918","63.8"
"2.14978","4172.45","0.9586","0.019172","64.5"
"2.17321","4186.67","0.9691","0.019382","65.2"
"2.1965","4199.8","0.9803","0.019606","65.9"
"2.21979","4212.64","0.9918","0.019836","66.6"
"2.24321","4226.09","1.0053","0.020106","67.3"
"2.26645","4237.98","1.0193","0.020386","68"
"2.28979","4249.97","1.031","0.02062","68.7"
"2.31317","4262.2","1.0465","0.02093","69.4"
"2.33646","4264.14","1.0613","0.021226","70.1"
"2.35984","4278.36","1.0715","0.02143","70.8"
"2.38317","4291.37","1.0856","0.021712","71.5"
"2.40646","4302.38","1.0964","0.021928","72.2"
"2.42979","4313.37","1.112","0.02224","72.9"
"2.45322","4324.54","1.1251","0.022502","73.6"
"2.4765","4335.24","1.1373","0.022746","74.3"
"2.49979","4344.8","1.152","0.02304","75"
"2.52322","4355.35","1.1657","0.023314","75.7"
"2.54651","4365.12","1.1757","0.023514","76.4"
"2.56979","4373.91","1.1922","0.023844","77.1"
"2.59322","4384.13","1.2069","0.024138","77.8"
"2.61651","4393.04","1.2206","0.024412","78.5"
"2.63979","4401.85","1.2358","0.024716","79.2"
"2.66322","4411.38","1.2493","0.024986","79.9"
"2.68646","4419.38","1.2616","0.025232","80.6"
"2.7098","4427.95","1.2799","0.025598","81.3"
"2.73318","4437.37","1.291","0.02582","82"
"2.75646","4444.87","1.307","0.02614","82.7"
"2.77984","4447.83","1.3196","0.026392","83.4"
"2.80318","4458.79","1.3359","0.026718","84.1"
"2.82647","4466.98","1.3457","0.026914","84.8"
"2.8498","4475.15","1.3613","0.027226","85.5"
"2.87318","4483.58","1.3784","0.027568","86.2"
"2.89651","4491.07","1.39","0.0278","86.9"
"2.9198","4498.42","1.4065","0.02813","87.6"
"2.94318","4506.21","1.4241","0.028482","88.3"
"2.96652","4513.38","1.4365","0.02873","89"
"2.9898","4520.74","1.4536","0.029072","89.7"
"3.01318","4527.62","1.4653","0.029306","90.4"
"3.03647","4534.79","1.4849","0.029698","91.1"
"3.05985","4542.29","1.4975","0.02995","91.8"
"3.08318","4549.27","1.5112","0.030224","92.5"
"3.10647","4555.57","1.5276","0.030552","93.2"
"3.1298","4562.46","1.5418","0.030836","93.9"
"3.15319","4569.82","1.5566","0.031132","94.6"
"3.17652","4575.85","1.5699","0.031398","95.3"
"3.19981","4582.47","1.5891","0.031782","96"
"3.22319","4589.13","1.6029","0.032058","96.7"
"3.24652","4595.34","1.6194","0.032388","97.4"
"3.26981","4601.64","1.6382","0.032764","98.1"
"3.29314","4608.38","1.652","0.03304","98.8"
"3.31652","4614.41","1.6664","0.033328","99.5"
"3.33981","4620.26","1.6812","0.033624","100.2"
"3.36319","4626.84","1.7002","0.034004","100.9"
"3.38652","4632.81","1.7158","0.034316","101.6"
"3.40976","4638.57","1.7318","0.034636","102.3"
"3.43314","4644.93","1.7481","0.034962","103"
"3.45653","4651.14","1.7649","0.035298","103.7"
"3.47981","4656.44","1.7798","0.035596","104.4"
"3.50324","4649.47","1.7977","0.035954","105.1"
"3.52653","4660.03","1.8136","0.036272","105.8"
"3.54977","4667.05","1.8256","0.036512","106.5"
"3.57315","4673.98","1.8411","0.036822","107.2"
"3.59653","4680.75","1.8593","0.037186","107.9"
"3.61982","4686.41","1.8737","0.037474","108.6"
"3.64315","4692.54","1.8886","0.037772","109.3"
"3.66653","4698","1.9044","0.038088","110"
"3.68982","4703.13","1.9201","0.038402","110.7"
"3.71315","4708.42","1.9367","0.038734","111.4"
"3.73653","4714.2","1.9508","0.039016","112.1"
"3.75982","4719.43","1.9691","0.039382","112.8"
"3.78315","4725.04","1.9857","0.039714","113.5"
"3.80653","4730.7","2.3302","0.046604","114.2"
"3.82977","4735.27","2.3474","0.046948","114.9"
"3.8532","4741.45","2.3713","0.047426","115.6"
"3.87649","4746.57","2.3891","0.047782","116.3"
"3.89977","4751.52","2.4046","0.048092","117"
"3.9232","4756.95","2.4237","0.048474","117.7"
"3.94654","4761.98","2.4428","0.048856","118.4"
"3.96978","4766.63","2.4597","0.049194","119.1"
"3.99316","4771.77","2.4795","0.04959","119.8"
"4.01654","4776.81","2.5046","0.050092","120.5"
"4.03982","4781.81","2.5221","0.050442","121.2"
"4.06316","4786.97","2.5372","0.050744","121.9"
"4.08654","4792.16","2.5553","0.051106","122.6"
"4.10983","4796.78","2.5741","0.051482","123.3"
"4.13316","4801.43","2.5905","0.05181","124"
"4.15654","4806.93","2.6129","0.05219","124.7"
"4.17978","4811.34","2.6304","0.052608","125.4"
"4.20321","4816.6","2.6503","0.053006","126.1"
"4.22654","4821.64","2.6687","0.053374","126.8"
"4.24978","4825.31","2.6909","0.053818","127.5"
"4.27316","4830.71","2.7076","0.054152","128.2"
"4.29654","4835.92","2.7291","0.054582","128.9"
"4.31983","4839.88","2.7513","0.055026","129.6"
"4.34316","4844.87","2.7681","0.055362","130.3"
"4.3665","4849.39","2.7858","0.055716","131"
"4.38983","4849.35","2.8041","0.056082","131.7"
"4.41316","4855.92","2.8259","0.056518","132.4"
"4.4365","4860.69","2.8471","0.056942","133.1"
"4.45983","4780.89","2.8773","0.057546","133.8"
"4.48312","4821.56","2.8955","0.05791","134.5"
"4.5065","4846.46","2.9047","0.058094","135.2"
"4.52983","4859.3","2.9168","0.058336","135.9"
"4.55312","4867.82","2.9319","0.058638","136.6"
"4.5765","4874.33","2.953","0.05906","137.3"
"4.59979","4879.36","2.9688","0.059376","138"
"4.62317","4885.22","2.9871","0.059742","138.7"
"4.6466","4890.58","3.0076","0.060152","139.4"
"4.66979","4893.22","3.0233","0.060466","140.1"
"4.69312","4897.99","3.0397","0.060794","140.8"
"4.71655","4902.1","3.0558","0.061116","141.5"
"4.73984","4906.42","3.0792","0.061584","142.2"
"4.76317","4911.43","3.0987","0.061974","142.9"
"4.78651","4915.68","3.1142","0.062284","143.6"
"4.80979","4919.61","3.1342","0.062684","144.3"
"4.83313","4924.14","3.1506","0.063012","145"
"4.85655","4928.35","3.1684","0.063368","145.7"
"4.87984","4932.3","3.1877","0.063754","146.4"
"4.90313","4936.67","3.2095","0.06419","147.1"
"4.92656","4940.6","3.2285","0.06457","147.8"
"4.9498","4944.5","3.2467","0.064934","148.5"
"4.97313","4948.68","3.2658","0.065316","149.2"
"4.99656","4938.71","3.2759","0.065518","149.9"
"5.0198","4947.08","3.2894","0.065788","150.6"
"5.04313","4953.71","3.3127","0.066254","151.3"
"5.0666","4959.74","3.3299","0.066598","152"
"5.0898","4964.22","3.3463","0.066926","152.7"
"5.11313","4968.42","3.3651","0.067302","153.4"
"5.13651","4973.02","3.385","0.0677","154.1"
"5.1598","4976.54","3.4011","0.068022","154.8"
"5.18318","4980.76","3.4196","0.068392","155.5"
"5.20651","4985.25","3.4409","0.068818","156.2"
"5.2298","4988.75","3.4617","0.069234","156.9"
"5.25314","4992.43","3.4788","0.069576","157.6"
"5.27652","4996.61","3.496","0.06992","158.3"
"5.29985","5000.39","3.5181","0.070362","159"
"5.32314","5003.93","3.5327","0.070654","159.7"
"5.34656","5008.35","3.5532","0.071064","160.4"
"5.3698","5011.65","3.5746","0.071492","161.1"
"5.39309","5014.42","3.5936","0.071872","161.8"
"5.41657","5019.15","3.6109","0.072218","162.5"
"5.43985","5022.76","3.6273","0.072546","163.2"
"5.46314","5026.28","3.6475","0.07295","163.9"
"5.48652","5030.51","3.6663","0.073326","164.6"
"5.50981","5033.26","3.6833","0.073666","165.3"
"5.53314","5037.01","3.7047","0.074094","166"
"5.55652","5041.24","3.7238","0.074476","166.7"
"5.57981","5043.83","3.7427","0.074854","167.4"
"5.60319","5047.92","3.7574","0.075148","168.1"
"5.62648","5051.81","3.7799","0.075598","168.8"
"5.64981","5054.78","3.7979","0.075958","169.5"
"5.67314","5058.58","3.8176","0.076352","170.2"
"5.69652","5062.42","3.8375","0.07675","170.9"
"5.71986","5065.45","3.8568","0.077136","171.6"
"5.74315","5068.97","3.8762","0.077524","172.3"
"5.76653","5072.8","3.8935","0.07787","173"
"5.78986","5075.76","3.9112","0.078224","173.7"
"5.8131","5078.84","3.9296","0.078592","174.4"
"5.83653","5082.55","3.949","0.07898","175.1"
"5.85986","5085.84","3.9726","0.079452","175.8"
"5.88315","5089.34","3.9876","0.079752","176.5"
"5.90653","5092.94","4.0057","0.080114","177.2"
"5.92982","5095.7","4.0245","0.08049","177.9"
"5.9531","5099","4.0411","0.080822","178.6"
"5.97648","5102.26","4.0645","0.08129","179.3"
"5.99986","5105.63","4.0817","0.081634","180"
"6.02315","5108.95","4.1023","0.082046","180.7"
"6.04653","5112.18","4.1188","0.082376","181.4"
"6.06987","5115.13","4.1345","0.08269","182.1"
"6.09311","5118.19","4.1566","0.083132","182.8"
"6.11653","5121.82","4.1737","0.083474","183.5"
"6.13991","5125.21","4.1945","0.08389","184.2"
"6.16311","5127.94","4.2115","0.08423","184.9"
"6.18653","5130.8","4.2334","0.084668","185.6"
"6.20987","5134.45","4.2483","0.084966","186.3"
"6.23311","5137.03","4.2624","0.085248","187"
"6.25649","5140.1","4.2856","0.08564","187.7"
"6.27982","5143.05","4.3048","0.086096","188.4"
"6.30316","5145.78","4.3246","0.086492","189.1"
"6.32654","5149.41","4.3443","0.086886","189.8"
"6.34982","5152.56","4.3621","0.087242","190.5"
"6.37311","5115.82","4.3618","0.087236","191.2"
"6.39654","5133.21","4.371","0.08742","191.9"
"6.41983","5145.3","4.3895","0.08779","192.6"
"6.44316","5152.46","4.4057","0.088114","193.3"
"6.46654","5157.73","4.4211","0.088422","194"
"6.48987","5162.18","4.4364","0.088728","194.7"
"6.51312","5165.23","4.4529","0.089058","195.4"
"6.5365","5168.63","4.4713","0.089426","196.1"
"6.55988","5172.38","4.4933","0.089866","196.8"
"6.58312","5174.78","4.5101","0.090202","197.5"
"6.60654","5178.39","4.5281","0.090562","198.2"
"6.62983","5181.15","4.5459","0.090918","198.9"
"6.65312","5183.29","4.5605","0.09121","199.6"
"6.6765","5186.64","4.5815","0.09163","200.3"
"6.69983","5189.54","4.5964","0.091928","201"
"6.72312","5191.99","4.6189","0.092378","201.7"
"6.74655","5195.44","4.6386","0.092772","202.4"
"6.76983","5197.76","4.6563","0.093126","203.1"
"6.79312","5200.09","4.6691","0.093382","203.8"
"6.8165","5203.88","4.6883","0.093766","204.5"
"6.83984","5206.19","4.7065","0.09413","205.2"
"6.86317","5208.3","4.7254","0.094508","205.9"
"6.8865","5211.53","4.7444","0.094888","206.6"
"6.90988","5214.11","4.7646","0.095292","207.3"
"6.93317","5216.51","4.7811","0.095622","208"
"6.95646","5219.25","4.7964","0.095928","208.7"
"6.97984","5221.9","4.8135","0.09627","209.4"
"7.00317","5224.37","4.835","0.0967","210.1"
"7.02651","5227.22","4.8535","0.09707","210.8"
"7.04989","5229.75","4.8702","0.097404","211.5"
"7.07313","5231.4","4.892","0.09784","212.2"
"7.09651","5234.53","4.908","0.09816","212.9"
"7.11984","5237.21","4.9237","0.098474","213.6"
"7.14313","5239.71","4.9421","0.098842","214.3"
"7.16651","5242.55","4.9636","0.099272","215"
"7.18984","5244.47","4.9814","0.099628","215.7"
"7.21313","5246.53","4.998","0.09996","216.4"
"7.23646","5249.28","5.0211","0.100422","217.1"
"7.25989","5251.92","5.0381","0.100762","217.8"
"7.28318","5254.23","5.0542","0.101084","218.5"
"7.30646","5256.47","5.0756","0.101512","219.2"
"7.32984","5258.85","5.0953","0.101906","219.9"
"7.35318","5261.26","5.1122","0.102244","220.6"
"7.37647","5263.21","5.1298","0.102596","221.3"
"7.39985","5266.2","5.149","0.10298","222"
"7.42313","5268.47","5.1683","0.103366","222.7"
"7.44651","5270.47","5.1858","0.103716","223.4"
"7.46989","5273.59","5.2063","0.104126","224.1"
"7.49309","5275.13","5.2242","0.104484","224.8"
"7.51647","5277.23","5.2427","0.104854","225.5"
"7.5399","5279.88","5.2609","0.105218","226.2"
"7.56314","5281.78","5.2792","0.105584","226.9"
"7.58652","5284.51","5.2982","0.105964","227.6"
"7.6099","5286.81","5.3159","0.106318","228.3"
"7.63314","5288.54","5.3371","0.106742","229"
"7.65647","5290.84","5.3541","0.107082","229.7"
"7.67985","5293.27","5.3727","0.107454","230.4"
"7.70319","5295.2","5.3877","0.107754","231.1"
"7.72647","5297.75","5.4079","0.108158","231.8"
"7.74985","5300.15","5.4269","0.108538","232.5"
"7.77314","5301.34","5.445","0.1089","233.2"
"7.79647","5303.71","5.4664","0.109328","233.9"
"7.81986","5306.69","5.4822","0.109644","234.6"
"7.84314","5308.36","5.5005","0.11001","235.3"
"7.86648","5310.53","5.5219","0.110438","236"
"7.8899","5312.81","5.5409","0.110818","236.7"
"7.9131","5313.94","5.5577","0.111154","237.4"
"7.93648","5316.66","5.5744","0.111488","238.1"
"7.95986","5319.36","5.5962","0.111924","238.8"
"7.98315","5320.58","5.6157","0.112314","239.5"
"8.00653","5322.84","5.6319","0.112638","240.2"
"8.02986","5324.93","5.6531","0.113062","240.9"
"8.05315","5326.74","5.6729","0.113458","241.6"
"8.07648","5328.86","5.69","0.1138","242.3"
"8.09981","5330.78","5.7069","0.114138","243"
"8.12315","5332.47","5.728","0.11456","243.7"
"8.14648","5335.04","5.7464","0.114928","244.4"
"8.16986","5337.23","5.7641","0.115282","245.1"
"8.19315","5338.82","5.7825","0.11565","245.8"
"8.21644","5340.59","5.8039","0.116078","246.5"
"8.23986","5342.73","5.8204","0.116408","247.2"
"8.26315","5344.71","5.8406","0.116812","247.9"
"8.28648","5346.95","5.8595","0.11719","248.6"
"8.30987","5349.14","5.8773","0.117546","249.3"
"8.33315","5350.58","5.8951","0.117902","250"
"8.35649","5352.28","5.9183","0.118366","250.7"
"8.37982","5354.31","5.9354","0.118708","251.4"
"8.4032","5356.54","5.9536","0.119072","252.1"
"8.42649","5358.17","5.9746","0.119492","252.8"
"8.44982","5359.95","5.9948","0.119896","253.5"
"8.47316","5361.75","6.0134","0.120268","254.2"
"8.49649","5363.91","6.0312","0.120624","254.9"
"8.51982","5366.06","6.0536","0.121072","255.6"
"8.54316","5367.64","6.0726","0.121452","256.3"
"8.56644","5368.95","6.0892","0.121784","257"
"8.58987","5371.44","6.1067","0.122134","257.7"
"8.6132","5373.15","6.1279","0.122558","258.4"
"8.63645","5374.53","6.1457","0.122914","259.1"
"8.65987","5376.86","6.1642","0.123284","259.8"
"8.68316","5378.39","6.1842","0.123684","260.5"
"8.70645","5379.38","6.2043","0.124086","261.2"
"8.72987","5382.07","6.2206","0.124412","261.9"
"8.75316","5383.6","6.2415","0.12477","262.6"
"8.77645","5385.22","6.2599","0.125198","263.3"
"8.79983","5387.21","6.279","0.12558","264"
"8.82316","5389.02","6.2961","0.125922","264.7"
"8.8465","5390.77","6.3192","0.126384","265.4"
"8.86983","5392.62","6.3394","0.126788","266.1"
"8.89316","5393.96","6.3558","0.127116","266.8"
"8.91645","5395.14","6.3718","0.127436","267.5"
"8.93988","5397.4","6.3911","0.127822","268.2"
"8.96321","5398.87","6.4099","0.128198","268.9"
"8.98645","5400.41","6.429","0.12858","269.6"
"9.00988","5402.47","6.4505","0.12901","270.3"
"9.03321","5404.03","6.4705","0.12941","271"
"9.05645","5405.71","6.4881","0.129762","271.7"
"9.07983","5407.73","6.505","0.1301","272.4"
"9.10317","5409.54","6.5214","0.130428","273.1"
"9.12646","5410.69","6.5402","0.130804","273.8"
"9.14988","5412.69","6.5608","0.131216","274.5"
"9.17317","5414.18","6.5825","0.13165","275.2"
"9.19646","5415.51","6.5991","0.131982","275.9"
"9.21984","5417.41","6.6156","0.132312","276.6"
"9.24317","5418.82","6.6373","0.132746","277.3"
"9.26651","5420.54","6.6542","0.133084","278"
"9.28989","5422.49","6.6717","0.133434","278.7"
"9.31317","5424.07","6.6917","0.133834","279.4"
"9.33646","5425.15","6.7167","0.134334","280.1"
"9.35984","5426.87","6.7306","0.134612","280.8"
"9.38322","5428.66","6.7463","0.134926","281.5"
"9.40646","5429.93","6.7631","0.135204","282.2"
"9.42984","5431.8","6.7815","0.13563","282.9"
"9.45322","5433.44","6.8021","0.136042","283.6"
"9.47646","5434.24","6.8199","0.136398","284.3"
"9.49984","5436.19","6.8433","0.136866","285"
"9.52318","5438.13","6.8596","0.137192","285.7"
"9.54651","5439.5","6.8764","0.137528","286.4"
"9.56984","5441.43","6.8944","0.137888","287.1"
"9.59318","5442.32","6.9125","0.13825","287.8"
"9.61647","5443.53","6.9322","0.138644","288.5"
"9.63985","5445.75","6.9514","0.139028","289.2"
"9.66318","5447.03","6.973","0.13946","289.9"
"9.68647","5448.38","6.9904","0.139808","290.6"
"9.70985","5450.18","7.004","0.14008","291.3"
"9.73323","5452.06","7.0274","0.140548","292"
"9.75647","5453.46","7.0415","0.14083","292.7"
"9.7798","5454.7","7.0626","0.141252","293.4"
"9.80323","5456.25","7.082","0.14164","294.1"
"9.82647","5457.3","7.1029","0.142058","294.8"
"9.84985","5459.3","7.1188","0.142376","295.5"
"9.87323","5460.81","7.1332","0.142664","296.2"
"9.89642","5461.96","7.1538","0.143076","296.9"
"9.91981","5463.49","7.1726","0.143452","297.6"
"9.94319","5464.97","7.192","0.14384","298.3"
"9.96647","5466.27","7.2142","0.144284","299"
"9.98985","5468.43","7.2308","0.144616","299.7"
"10.0132","5469.43","7.2463","0.144926","300.4"
"10.0364","5470.43","7.2615","0.14523","301.1"
"10.0598","5471.98","7.2807","0.145614","301.8"
"10.0832","5474","7.2983","0.145966","302.5"
"10.1065","5474.83","7.3175","0.14635","303.2"
"10.1298","5476.11","7.3402","0.146804","303.9"
"10.1532","5477.67","7.3582","0.147164","304.6"
"10.1765","5478.8","7.3748","0.147496","305.3"
"10.1998","5480.32","7.3903","0.147806","306"
"10.2232","5482.02","7.4113","0.148226","306.7"
"10.2465","5482.93","7.4304","0.148608","307.4"
"10.2698","5484.18","7.449","0.14898","308.1"
"10.2932","5486.06","7.4673","0.149346","308.8"
"10.3164","5487.01","7.4855","0.14971","309.5"
"10.3399","5488.49","7.5033","0.150066","310.2"
"10.3632","5490.23","7.5188","0.150376","310.9"
"10.3864","5491.05","7.5384","0.150768","311.6"
"10.4099","5492.53","7.5593","0.151186","312.3"
"10.4332","5494.53","7.577","0.15154","313"
"10.4564","5495.23","7.598","0.15196","313.7"
"10.4798","5496.28","7.6142","0.152284","314.4"
"10.5032","5497.61","7.6332","0.152664","315.1"
"10.5265","5498.66","7.6483","0.152966","315.8"
"10.5498","5500.37","7.67","0.1534","316.5"
"10.5732","5501.8","7.6882","0.153764","317.2"
"10.5965","5502.46","7.708","0.15416","317.9"
"10.6198","5503.65","7.7291","0.154582","318.6"
"10.6432","5505.72","7.7447","0.154894","319.3"
"10.6665","5506.49","7.7628","0.155256","320"
"10.6898","5508.04","7.7823","0.155646","320.7"
"10.7132","5509.61","7.8038","0.156076","321.4"
"10.7364","5509.86","7.8185","0.15637","322.1"
"10.7598","5511.52","7.8367","0.156734","322.8"
"10.7832","5513.45","7.8619","0.157238","323.5"
"10.8065","5514.07","7.877","0.15754","324.2"
"10.8298","5515.6","7.8935","0.15787","324.9"
"10.8532","5517.29","7.9157","0.158314","325.6"
"10.8765","5518","7.9342","0.158684","326.3"
"10.8998","5519.41","7.9516","0.159032","327"
"10.9232","5520.28","7.9725","0.15945","327.7"
"10.9465","5521.25","7.991","0.15982","328.4"
"10.9698","5522.53","8.0091","0.160182","329.1"
"10.9932","5524.37","8.0287","0.160574","329.8"
"11.0165","5525.36","8.0484","0.160968","330.5"
"11.0398","5526.11","8.0672","0.161344","331.2"
"11.0632","5526.22","8.0844","0.161688","331.9"
"11.0865","5527.32","8.1025","0.16205","332.6"
"11.1098","5528.96","8.1249","0.162498","333.3"
"11.1333","5530.63","8.1419","0.162838","334"
"11.1565","5531.3","8.1592","0.163184","334.7"
"11.1798","5532.14","8.1786","0.163572","335.4"
"11.2032","5533.39","8.1995","0.16399","336.1"
"11.2265","5534.67","8.2166","0.164332","336.8"
"11.2498","5536.31","8.235","0.1647","337.5"
"11.2732","5537.12","8.2542","0.165084","338.2"
"11.2965","5538.18","8.273","0.16546","338.9"
"11.3198","5539.76","8.2892","0.165784","339.6"
"11.3432","5540.87","8.3099","0.166198","340.3"
"11.3665","5541.96","8.3282","0.166564","341"
"11.3898","5543.03","8.3467","0.166934","341.7"
"11.4132","5544.24","8.3653","0.167306","342.4"
"11.4365","5545.49","8.3864","0.167728","343.1"
"11.4598","5546.33","8.4018","0.168036","343.8"
"11.4832","5548.04","8.4205","0.16841","344.5"
"11.5065","5549.16","8.4426","0.168852","345.2"
"11.5298","5549.78","8.4609","0.169218","345.9"
"11.5533","5551.21","8.4784","0.169568","346.6"
"11.5765","5552.25","8.4972","0.169944","347.3"
"11.5998","5552.94","8.5186","0.170372","348"
"11.6232","5554.17","8.5359","0.170718","348.7"
"11.6465","5555.31","8.5525","0.17105","349.4"
"11.6698","5556.4","8.5738","0.171476","350.1"
"11.6932","5558.02","8.5929","0.171858","350.8"
"11.7165","5558.95","8.6101","0.172202","351.5"
"11.7398","5559.39","8.6309","0.172618","352.2"
"11.7632","5560.8","8.6506","0.173012","352.9"
"11.7865","5562.24","8.6674","0.173348","353.6"
"11.8098","5562.83","8.6847","0.173694","354.3"
"11.8332","5564.83","8.7056","0.174112","355"
"11.8565","5565.32","8.7254","0.174508","355.7"
"11.8798","5565.61","8.7434","0.174868","356.4"
"11.9032","5567.85","8.7628","0.175256","357.1"
"11.9265","5568.7","8.7826","0.175652","357.8"
"11.9498","5569.32","8.8009","0.176018","358.5"
"11.9732","5570.95","8.8175","0.17635","359.2"
"11.9965","5571.5","8.8401","0.176802","359.9"
"12.0198","5572.47","8.858","0.17716","360.6"
"12.0432","5574.1","8.8769","0.177538","361.3"
"12.0665","5574.42","8.898","0.17796","362"
"12.0899","5575.57","8.917","0.17834","362.7"
"12.1132","5576.82","8.9332","0.178664","363.4"
"12.1365","5577.84","8.951","0.17902","364.1"
"12.1598","5579.07","8.9711","0.179422","364.8"
"12.1832","5580.05","8.9909","0.179818","365.5"
"12.2065","5581.1","9.0109","0.180218","366.2"
"12.2298","5582.19","9.0308","0.180616","366.9"
"12.2532","5583.5","9.0473","0.180946","367.6"
"12.2766","5584.42","9.0651","0.181302","368.3"
"12.2998","5584.95","9.0831","0.181662","369"
"12.3231","5585.87","9.1047","0.182094","369.7"
"12.3465","5587.12","9.1238","0.182476","370.4"
"12.3698","5588.48","9.1429","0.182858","371.1"
"12.3932","5589.49","9.1664","0.183328","371.8"
"12.4165","5589.8","9.1827","0.183654","372.5"
"12.4398","5590.81","9.2024","0.184048","373.2"
"12.4631","5591.99","9.2201","0.184402","373.9"
"12.4865","5593.16","9.241","0.18482","374.6"
"12.5098","5594.25","9.2585","0.18517","375.3"
"12.5332","5595.19","9.277","0.18554","376"
"12.5565","5596.29","9.2975","0.18595","376.7"
"12.5798","5596.96","9.3165","0.18633","377.4"
"12.6031","5598.13","9.3327","0.186654","378.1"
"12.6266","5599.58","9.356","0.18712","378.8"
"12.6498","5599.88","9.3737","0.187474","379.5"
"12.6731","5600.72","9.3919","0.187838","380.2"
"12.6966","5602.46","9.4105","0.18821","380.9"
"12.7198","5602.43","9.4325","0.18865","381.6"
"12.7431","5603.48","9.451","0.18902","382.3"
"12.7665","5604.78","9.4675","0.18935","383"
"12.7898","5605.11","9.4889","0.189778","383.7"
"12.8132","5606.79","9.5069","0.190138","384.4"
"12.8365","5608.01","9.5241","0.190482","385.1"
"12.8598","5607.99","9.542","0.19084","385.8"
"12.8832","5609.35","9.5652","0.191304","386.5"
"12.9065","5610.33","9.5847","0.191694","387.2"
"12.9298","5611.19","9.6025","0.19205","387.9"
"12.9532","5612.7","9.6193","0.192386","388.6"
"12.9765","5613.76","9.6414","0.192828","389.3"
"12.9998","5613.96","9.6583","0.193166","390"
"13.0232","5614.95","9.6773","0.193546","390.7"
"13.0465","5616.74","9.6993","0.193986","391.4"
"13.0698","5617.06","9.7169","0.194338","392.1"
"13.0932","5618.21","9.7346","0.194692","392.8"
"13.1165","5619.11","9.7555","0.19511","393.5"
"13.1398","5619.32","9.7714","0.195428","394.2"
"13.1632","5620.77","9.79","0.1958","394.9"
"13.1865","5621.99","9.8134","0.196218","395.6"
"13.2098","5622.28","9.8323","0.196646","396.3"
"13.2332","5623.9","9.8494","0.196988","397"
"13.2565","5624.49","9.8685","0.19737","397.7"
"13.2798","5625.42","9.8882","0.197764","398.4"
"13.3032","5626.72","9.9049","0.198098","399.1"
"13.3265","5627.47","9.9248","0.198496","399.8"
"13.3498","5628.26","9.9445","0.19889","400.5"
"13.3732","5629.55","9.9654","0.199308","401.2"
"13.3965","5630.41","9.9843","0.199686","401.9"
"13.4198","5631.1","9.9994","0.199988","402.6"
"13.4431","5632.09","10.0215","0.20043","403.3"
"13.4665","5633.06","10.0387","0.200774","404"
"13.4898","5633.79","10.0567","0.201134","404.7"
"13.5132","5634.87","10.0804","0.201608","405.4"
"13.5365","5636.11","10.0957","0.201914","406.1"
"13.5598","5636.31","10.1141","0.202282","406.8"
"13.5832","5637.25","10.1334","0.202668","407.5"
"13.6065","5638.85","10.1517","0.203034","408.2"
"13.6298","5639.65","10.1712","0.203424","408.9"
"13.6532","5640.7","10.1885","0.20377","409.6"
"13.6765","5641.53","10.2094","0.204188","410.3"
"13.6998","5642.38","10.2301","0.204602","411"
"13.7231","5643.18","10.2481","0.204962","411.7"
"13.7466","5644.46","10.2649","0.205298","412.4"
"13.7698","5645.29","10.2845","0.20569","413.1"
"13.7931","5645.52","10.3027","0.206054","413.8"
"13.8166","5646.74","10.3205","0.20641","414.5"
"13.8398","5648.03","10.3397","0.206794","415.2"
"13.8631","5648.67","10.3616","0.207232","415.9"
"13.8865","5649.77","10.3806","0.207612","416.6"
"13.9098","5649.92","10.3974","0.207948","417.3"
"13.9332","5651.28","10.4175","0.20835","418"
"13.9566","5652.79","10.4371","0.208742","418.7"
"13.9798","5652.82","10.4534","0.209068","419.4"
"14.0031","5653.58","10.4766","0.209472","420.1"
"14.0266","5654.93","10.4957","0.209914","420.8"
"14.0498","5655.33","10.5132","0.210264","421.5"
"14.0732","5656.45","10.5298","0.210596","422.2"
"14.0966","5657.57","10.5512","0.211024","422.9"
"14.1198","5657.6","10.568","0.21136","423.6"
"14.1431","5658.29","10.5857","0.211714","424.3"
"14.1665","5659.87","10.6071","0.212142","425"
"14.1898","5660.52","10.6255","0.21251","425.7"
"14.2131","5661.07","10.6449","0.212898","426.4"
"14.2365","5662.42","10.6626","0.213252","427.1"
"14.2598","5662.6","10.6828","0.213656","427.8"
"14.2831","5663.68","10.6999","0.213998","428.5"
"14.3065","5664.9","10.7198","0.214396","429.2"
"14.3298","5665.44","10.7414","0.214828","429.9"
"14.3531","5666.03","10.759","0.21518","430.6"
"14.3766","5667.17","10.7771","0.215542","431.3"
"14.3998","5667.65","10.7935","0.21587","432"
"14.4231","5668.2","10.8154","0.216308","432.7"
"14.4465","5669.55","10.8321","0.216642","433.4"
"14.4698","5669.96","10.8509","0.217018","434.1"
"14.4932","5670.99","10.8732","0.217464","434.8"
"14.5165","5671.8","10.8898","0.217796","435.5"
"14.5399","5672.64","10.91","0.2182","436.2"
"14.5631","5673.34","10.929","0.21858","436.9"
"14.5865","5673.9","10.9472","0.218944","437.6"
"14.6099","5674.72","10.9662","0.219324","438.3"
"14.6331","5675.52","10.9676","0.219352","439"
"14.6565","5676.79","11.0065","0.22013","439.7"
"14.6799","5677.4","11.0246","0.220492","440.4"
"14.7031","5677.81","11.0424","0.220848","441.1"
"14.7265","5679.43","11.0636","0.221272","441.8"
"14.7499","5679.98","11.0808","0.221616","442.5"
"14.7731","5680.45","11.0982","0.221964","443.2"
"14.7965","5681.66","11.1187","0.222374","443.9"
"14.8198","5682","11.1403","0.222806","444.6"
"14.8431","5682.82","11.1601","0.223202","445.3"
"14.8665","5684.26","11.1769","0.223538","446"
"14.8899","5684.86","11.1966","0.223932","446.7"
"14.9131","5685.21","11.2141","0.224282","447.4"
"14.9365","5685.96","11.2324","0.224648","448.1"
"14.9599","5687.06","11.2514","0.225028","448.8"
"14.9832","5688.03","11.2762","0.225524","449.5"
"15.0065","5688.96","11.2905","0.22581","450.2"
"15.0299","5689.53","11.3095","0.22619","450.9"
"15.0531","5690.1","11.3316","0.22655","451.6"
"15.0765","5691.23","11.3492","0.226984","452.3"
"15.0999","5692.17","11.3707","0.227414","453"
"15.1231","5692.25","11.3883","0.227766","453.7"
"15.1465","5693.63","11.4046","0.228092","454.4"
"15.1699","5694.12","11.4256","0.228512","455.1"
"15.1932","5694.94","11.4437","0.228874","455.8"
"15.2165","5695.98","11.4647","0.229294","456.5"
"15.2399","5696.2","11.4811","0.229622","457.2"
"15.2631","5696.5","11.5012","0.230024","457.9"
"15.2865","5697.99","11.5172","0.230344","458.6"
"15.3099","5698.59","11.5397","0.230794","459.3"
"15.3332","5699.23","11.5597","0.231194","460"
"15.3565","5700.21","11.5765","0.23153","460.7"
"15.3799","5700.87","11.5958","0.231916","461.4"
"15.4031","5701.55","11.6174","0.232348","462.1"
"15.4265","5702.36","11.6327","0.232654","462.8"
"15.4499","5703.27","11.6566","0.233132","463.5"
"15.4731","5703.73","11.6748","0.233496","464.2"
"15.4965","5704.78","11.6926","0.233852","464.9"
"15.5199","5706.04","11.7126","0.234252","465.6"
"15.5431","5705.93","11.7325","0.23465","466.3"
"15.5665","5707.2","11.7505","0.23501","467"
"15.5899","5707.8","11.7692","0.235384","467.7"
"15.6131","5707.99","11.7917","0.235834","468.4"
"15.6365","5709.54","11.8086","0.236172","469.1"
"15.6598","5710.41","11.8232","0.236464","469.8"
"15.6831","5710.69","11.842","0.23684","470.5"
"15.7065","5711.43","11.8644","0.237288","471.2"
"15.7298","5712.23","11.8818","0.237636","471.9"
"15.7532","5712.69","11.8995","0.23799","472.6"
"15.7765","5713.81","11.9215","0.23843","473.3"
"15.7998","5714.55","11.9375","0.23875","474"
"15.8231","5715.01","11.9568","0.239136","474.7"
"15.8465","5715.78","11.9759","0.239518","475.4"
"15.8699","5716.96","11.9959","0.239918","476.1"
"15.8931","5717.28","12.0153","0.240306","476.8"
"15.9165","5718.47","12.0328","0.240656","477.5"
"15.9399","5719.19","12.054","0.24108","478.2"
"15.9631","5718.88","12.0727","0.241454","478.9"
"15.9865","5720.13","12.0877","0.241754","479.6"
"16.0098","5721.08","12.1051","0.242102","480.3"
"16.0332","5721.35","12.1266","0.242532","481"
"16.0565","5722.46","12.1478","0.242956","481.7"
"16.0798","5722.68","12.1637","0.243274","482.4"
"16.1031","5723.22","12.1818","0.243636","483.1"
"16.1265","5724.39","12.2008","0.244016","483.8"
"16.1498","5724.66","12.2192","0.244384","484.5"
"16.1732","5725.04","12.2407","0.244814","485.2"
"16.1965","5725.97","12.2582","0.245164","485.9"
"16.2199","5727.12","12.2762","0.245524","486.6"
"16.2432","5727.55","12.2926","0.245852","487.3"
"16.2664","5727.93","12.315","0.2463","488"
"16.2899","5728.55","12.3309","0.246618","488.7"
"16.3132","5728.98","12.3512","0.247024","489.4"
"16.3365","5730.24","12.3745","0.24749","490.1"
"16.3599","5730.91","12.392","0.24784","490.8"
"16.3831","5731.18","12.4053","0.248106","491.5"
"16.4065","5731.4","12.424","0.24848","492.2"
"16.4298","5732.57","12.4477","0.248954","492.9"
"16.4531","5733.2","12.4685","0.24937","493.6"
"16.4765","5733.96","12.4818","0.249636","494.3"
"16.4998","5734.5","12.5005","0.25001","495"
"16.5231","5734.9","12.5185","0.25037","495.7"
"16.5465","5735.44","12.5376","0.250752","496.4"
"16.5699","5736.38","12.5547","0.251094","497.1"
"16.5931","5736.98","12.5811","0.251622","497.8"
"16.6165","5737.07","12.5939","0.251878","498.5"
"16.6399","5738.22","12.6101","0.252202","499.2"
"16.6632","5739.01","12.6325","0.25265","499.9"
"16.6865","5739.32","12.648","0.25296","500.6"
"16.7099","5740.13","12.67","0.2534","501.3"
"16.7331","5740.53","12.6882","0.253764","502"
"16.7565","5740.78","12.709","0.25418","502.7"
"16.7799","5742.06","12.7277","0.254554","503.4"
"16.8031","5742.01","12.7451","0.254902","504.1"
"16.8265","5742.85","12.7632","0.255264","504.8"
"16.8499","5743.35","12.7832","0.255664","505.5"
"16.8731","5743.49","12.8034","0.256068","506.2"
"16.8965","5744.13","12.8194","0.256388","506.9"
"16.9199","5745.48","12.8405","0.25681","507.6"
"16.9431","5745.25","12.8592","0.257184","508.3"
"16.9665","5745.26","12.8756","0.257512","509"
"16.9899","5746.6","12.8953","0.257906","509.7"
"17.0132","5746.8","12.9111","0.258222","510.4"
"17.0365","5747.51","12.9317","0.258634","511.1"
"17.0599","5748.34","12.9515","0.25903","511.8"
"17.0832","5748.38","12.9702","0.259404","512.5"
"17.1065","5748.94","12.988","0.25976","513.2"
"17.1299","5750.14","13.0089","0.260178","513.9"
"17.1531","5750.3","13.0288","0.260576","514.6"
"17.1765","5750.3","13.0462","0.260924","515.3"
"17.1999","5751.08","13.0639","0.261278","516"
"17.2231","5750.76","13.0848","0.261696","516.7"
"17.2465","5751.6","13.1045","0.26209","517.4"
"17.2699","5752.59","13.1218","0.262436","518.1"
"17.2932","5752.34","13.1396","0.262792","518.8"
"17.3165","5753.29","13.16","0.2632","519.5"
"17.3399","5754.03","13.1781","0.263562","520.2"
"17.3632","5754.24","13.2021","0.264042","520.9"
"17.3864","5754.81","13.2194","0.264388","521.6"
"17.4098","5754.49","13.2373","0.264746","522.3"
"17.4332","5755.05","13.2538","0.265076","523"
"17.4565","5756.07","13.2704","0.265408","523.7"
"17.4799","5756.67","13.2944","0.265888","524.4"
"17.5032","5756.92","13.3112","0.266224","525.1"
"17.5264","5757","13.3279","0.266558","525.8"
"17.5498","5757.73","13.3467","0.266934","526.5"
"17.5732","5757.81","13.3676","0.267352","527.2"
"17.5965","5758.32","13.3862","0.267724","527.9"
"17.6199","5758.78","13.3999","0.267998","528.6"
"17.6432","5759.06","13.4184","0.268368","529.3"
"17.6664","5759.42","13.4358","0.268716","530"
"17.6899","5760.33","13.4535","0.26907","530.7"
"17.7132","5761.27","13.4728","0.269456","531.4"
"17.7365","5761.15","13.4889","0.269778","532.1"
"17.7598","5761.71","13.5057","0.270114","532.8"
"17.7832","5762.5","13.5237","0.27041","533.5"
"17.8064","5762.79","13.5407","0.270814","534.2"
"17.8298","5763.51","13.5585","0.27117","534.9"
"17.8532","5764.26","13.5727","0.271454","535.6"
"17.8764","5764.8","13.5956","0.271912","536.3"
"17.8999","5765.25","13.6131","0.272262","537"
"17.9232","5766.28","13.6281","0.272562","537.7"
"17.9465","5766.09","13.6447","0.272894","538.4"
"17.9699","5767","13.6636","0.273272","539.1"
"17.9932","5767.36","13.682","0.27364","539.8"
"18.0165","5767.33","13.6985","0.27397","540.5"
"18.0399","5768.71","13.7181","0.274362","541.2"
"18.0632","5769.34","13.7356","0.274712","541.9"
"18.0865","5769.04","13.7523","0.275046","542.6"
"18.1098","5769.82","13.7684","0.275368","543.3"
"18.1332","5770.41","13.7894","0.275788","544"
"18.1565","5770.89","13.806","0.27612","544.7"
"18.1798","5771.61","13.823","0.27646","545.4"
"18.2032","5771.83","13.8444","0.276888","546.1"
"18.2265","5772.1","13.8576","0.277152","546.8"
"18.2498","5773.02","13.8771","0.277542","547.5"
"18.2732","5773.61","13.8964","0.277928","548.2"
"18.2965","5773.38","13.9153","0.278306","548.9"
"18.3198","5774.44","13.9302","0.278604","549.6"
"18.3432","5774.72","13.9479","0.278958","550.3"
"18.3665","5774.96","13.9683","0.279366","551"
"18.3898","5776.08","13.9849","0.279698","551.7"
"18.4132","5776.4","14.0023","0.280046","552.4"
"18.4365","5776.46","14.0212","0.280424","553.1"
"18.4598","5777.26","14.0375","0.28075","553.8"
"18.4832","5777.56","14.0542","0.281084","554.5"
"18.5065","5777.81","14.0702","0.281404","555.2"
"18.5298","5776.85","14.0908","0.281816","555.9"
"18.5532","5776.57","14.1087","0.282174","556.6"
"18.5765","5777.53","14.1244","0.282488","557.3"
"18.5998","5778","14.1426","0.282852","558"
"18.6232","5778.78","14.156","0.28312","558.7"
"18.6465","5779.09","14.1723","0.283446","559.4"
"18.6698","5779.47","14.1913","0.283826","560.1"
"18.6932","5780.3","14.2117","0.284234","560.8"
"18.7165","5780.66","14.2258","0.284516","561.5"
"18.7398","5781.15","14.2446","0.284892","562.2"
"18.7632","5782.11","14.2626","0.285252","562.9"
"18.7864","5781.81","14.2763","0.285526","563.6"
"18.8098","5782.27","14.2962","0.285924","564.3"
"18.8332","5783.41","14.3085","0.28617","565"
"18.8565","5783.72","14.3341","0.286682","565.7"
"18.8798","5784.5","14.3499","0.286998","566.4"
"18.9032","5784.44","14.3638","0.287276","567.1"
"18.9265","5785.08","14.381","0.28762","567.8"
"18.9498","5785.58","14.3972","0.287944","568.5"
"18.9732","5786.13","14.4114","0.288228","569.2"
"18.9965","5786.41","14.4279","0.288558","569.9"
"19.0198","5786.76","14.4464","0.288928","570.6"
"19.0432","5787.7","14.4635","0.28927","571.3"
"19.0665","5787.81","14.4765","0.28953","572"
"19.0898","5788.34","14.5022","0.290044","572.7"
"19.1132","5789.41","14.5166","0.290332","573.4"
"19.1365","5789.05","14.5311","0.290622","574.1"
"19.1598","5789.93","14.5484","0.290926","574.8"
"19.1832","5790.68","14.5665","0.29133","575.5"
"19.2065","5790.51","14.5849","0.291698","576.2"
"19.2298","5790.87","14.6002","0.292004","576.9"
"19.2532","5791.52","14.6177","0.292354","577.6"
"19.2765","5792.16","14.6343","0.292686","578.3"
"19.2999","5792.94","14.6504","0.293008","579"
"19.3232","5793.61","14.6664","0.293328","579.7"
"19.3464","5793.19","14.685","0.2937","580.4"
"19.3698","5793.92","14.7029","0.294058","581.1"
"19.3932","5794.51","14.7177","0.294354","581.8"
"19.4165","5794.67","14.74","0.2948","582.5"
"19.4398","5795.03","14.7526","0.295052","583.2"
"19.4632","5795.8","14.7665","0.29533","583.9"
"19.4865","5794.93","14.788","0.29576","584.6"
"19.5098","5795.36","14.8051","0.296102","585.3"
"19.5332","5796.41","14.8228","0.296456","586"
"19.5565","5796.45","14.8327","0.296654","586.7"
"19.5798","5796.875","14.8525","0.29705","587.4"
"19.6032","5797.68","14.8751","0.297502","588.1"
"19.6265","5797.66","14.887","0.29774","588.8"
"19.6498","5798.3","14.902","0.29804","589.5"
"19.6732","5798.64","14.9192","0.298384","590.2"
"19.6964","5798.87","14.9356","0.298712","590.9"
"19.7199","5799.5","14.9518","0.299036","591.6"
"19.7432","5799.81","14.9696","0.299392","592.3"
"19.7665","5800.2","14.9845","0.29969","593"
"19.7898","5800.49","14.9996","0.299992","593.7"
"19.8132","5799.27","15.0203","0.300406","594.4"
"19.8365","5797.25","15.0323","0.300646","595.1"
"19.8598","5797.48","15.0505","0.30101","595.8"
"19.8832","5798.61","15.064","0.30128","596.5"
"19.9065","5799.06","15.0844","0.301688","597.2"
"19.9298","5799.05","15.0972","0.301944","597.9"
"19.9532","5799.74","15.112","0.30224","598.6"
"19.9765","5800.05","15.1282","0.302564","599.3"
"19.9998","5800.27","15.1422","0.302844","600"
"20.0232","5799.66","15.162","0.30324","600.7"
"20.0465","5798.1","15.1755","0.30351","601.4"
"20.0698","5798.88","15.1881","0.303762","602.1"
"20.0932","5799.71","15.2046","0.304092","602.8"
"20.1165","5800.1","15.2209","0.304418","603.5"
"20.1398","5799.11","15.2354","0.304708","604.2"
"20.1632","5798.54","15.2486","0.304972","604.9"
"20.1865","5798.69","15.2597","0.305194","605.6"
"20.2098","5799.61","15.2747","0.305494","606.3"
"20.2332","5800.39","15.294","0.30588","607"
"20.2565","5800.77","15.3086","0.306172","607.7"
"20.2798","5800.8","15.3196","0.306392","608.4"
"20.3032","5801.61","15.3365","0.30673","609.1"
"20.3265","5802.16","15.35","0.307","609.8"
"20.3498","5801.95","15.3627","0.307254","610.5"
"20.3732","5802.31","15.3764","0.307528","611.2"
"20.3965","5802.43","15.3946","0.307892","611.9"
"20.4198","5801.96","15.4057","0.308114","612.6"
"20.4432","5799.75","15.4206","0.308412","613.3"
"20.4665","5799.27","15.4359","0.308718","614"
"20.4898","5798.78","15.4491","0.308982","614.7"
"20.5132","5796.46","15.4622","0.309244","615.4"
"20.5365","5793.8","15.4732","0.309464","616.1"
"20.5598","5790.56","15.4834","0.309668","616.8"
"20.5832","5790.76","15.4942","0.309884","617.5"
"20.6065","5789.72","15.5084","0.310168","618.2"
"20.6298","5787.76","15.5193","0.310386","618.9"
"20.6532","5787.95","15.5288","0.310576","619.6"
"20.6765","5788.11","15.5402","0.310804","620.3"
"20.6998","5786.79","15.5512","0.311024","621"
"20.7232","5779.57","15.5629","0.311258","621.7"
"20.7465","5771.81","15.5727","0.311454","622.4"
"20.7698","5761.91","15.5774","0.311548","623.1"
"20.7932","5756.42","15.5824","0.311648","623.8"
"20.8165","5748.59","15.5909","0.311818","624.5"
"20.8398","5740.16","15.595","0.3119","625.2"
"20.8632","5729.5","15.597","0.31194","625.9"
"20.8865","5723.49","15.6014","0.312028","626.6"
"20.9098","5708.6","15.6025","0.31205","627.3"
"20.9332","5700.51","15.6043","0.312086","628"
"20.9565","5689.07","15.6048","0.312096","628.7"
"20.9798","5677.29","15.6042","0.312084","629.4"
"21.0032","5658.14","15.6084","0.312168","630.1"
"21.0265","5636.96","15.6061","0.312122","630.8"
"21.0498","5612.79","15.6041","0.312082","631.5"
"21.0731","5597.12","15.6037","0.312074","632.2"
"21.0965","5590.46","15.6041","0.312082","632.9"
"21.1198","5586.44","15.6073","0.312146","633.6"
"21.1432","5579.06","15.6074","0.312148","634.3"
"21.1665","5487.74","15.5989","0.311978","635"
"21.1898","5403.35","15.5863","0.311726","635.7"
"21.2132","5379.01","15.5874","0.311748","636.4"
"21.2365","5344.53","15.5846","0.311692","637.1"
"21.2598","5315.28","15.5797","0.311594","637.8"
"21.2832","5298.46","15.5811","0.311622","638.5"
"21.3065","5292.56","15.5792","0.311584","639.2"
"21.3298","5272.53","15.578","0.31156","639.9"
"21.3531","5261.31","15.5754","0.311508","640.6"
"21.3765","5252.09","15.5718","0.311436","641.3"
"21.3998","5186.67","15.5687","0.311374","642"
"21.4231","5140.94","15.5641","0.311282","642.7"
"21.4465","5090.89","15.5599","0.311198","643.4"
"21.4698","5053.11","15.5554","0.311108","644.1"
"21.4931","4987.34","15.5488","0.310976","644.8"
"21.5165","4937.58","15.542","0.31084","645.5"
"21.5398","4890.16","15.5359","0.310718","646.2"
"21.5632","4823.76","15.5265","0.31053","646.9"
"21.5866","1864.48","15.5069","0.310138","647.6"
"21.5964","1739.17","15.0604","0.301208","647.9"