File: experimental_data/tensile_specimen_test_data/tensile_test_data/20250312/original_data/SSS 13 03-12-25 16 18 12 下午/数采：横梁, … - (实时值).csv
"文件路径: C:\Users\Lenovo\Desktop\Wayne\20250312\原始数据\SSS 13 03-12-25 16 18 12 下午\数采：横梁, … - (实时值).csv   "
"试验: 拉伸试验（UNIVER）      视频引伸计采集变形-W 1"
"试验运行: SSS 13"
"日期: 2025/3/12 15:07:09"
""
""
"横梁 ","力 ","视频引伸计变形 ","应变 ","时间 "
"mm","N","mm","mm/mm","sec"
"0.00270132","15.2087","-0.0001","-2e-06","0.1"
"0.0232407","116.113","0.031","0.00062","0.7"
"0.0433143","232.077","0.0661","0.001322","1.3"
"0.0632481","349.129","0.1014","0.002028","1.9"
"0.0832752","467.25","0.1251","0.002502","2.5"
"0.103256","583.559","0.1485","0.00297","3.1"
"0.123283","698.478","0.1666","0.003332","3.7"
"0.143263","810.416","0.1841","0.003682","4.3"
"0.16329","919.943","0.2029","0.004058","4.9"
"0.183271","1026.39","0.2153","0.004306","5.5"
"0.203298","1130.68","0.2328","0.004656","6.1"
"0.223231","1232.45","0.2459","0.004918","6.7"
"0.243259","1331.93","0.2598","0.005196","7.3"
"0.263239","1428.67","0.2733","0.005466","7.9"
"0.283313","1522.92","0.2858","0.005716","8.5"
"0.303293","1615.21","0.2963","0.005926","9.1"
"0.32332","1705.92","0.3112","0.006224","9.7"
"0.343254","1792.5","0.3227","0.006454","10.3"
"0.363234","1875","0.3367","0.006734","10.9"
"0.383261","1952.43","0.347","0.00694","11.5"
"0.403242","2024.89","0.3571","0.007142","12.1"
"0.423362","2093.66","0.3694","0.007388","12.7"
"0.443296","2156.03","0.3786","0.007572","13.3"
"0.463323","2214.06","0.3904","0.007808","13.9"
"0.483257","2266.95","0.3991","0.007982","14.5"
"0.503237","2317.24","0.4087","0.008174","15.1"
"0.523218","2365.56","0.4193","0.008386","15.7"
"0.543291","2412.08","0.429","0.00858","16.3"
"0.563272","2456.83","0.4372","0.008744","16.9"
"0.583345","2498.7","0.4477","0.008954","17.5"
"0.603279","2537.76","0.4552","0.009104","18.1"
"0.62326","2574.53","0.4643","0.009286","18.7"
"0.64324","2610.43","0.4725","0.00945","19.3"
"0.663267","2645.15","0.4794","0.009588","19.9"
"0.683248","2679.22","0.4901","0.009802","20.5"
"0.703321","2712.55","0.5012","0.010024","21.1"
"0.723302","2743.84","0.5098","0.010196","21.7"
"0.743282","2774.69","0.5173","0.010346","22.3"
"0.763263","2804.38","0.5225","0.01045","22.9"
"0.783243","2833.4","0.5312","0.010624","23.5"
"0.80327","2862.02","0.5473","0.010946","24.1"
"0.823297","2889.38","0.5558","0.011116","24.7"
"0.843324","2916.2","0.5613","0.011226","25.3"
"0.863305","2942.23","0.5673","0.011346","25.9"
"0.883332","2967.14","0.5754","0.011508","26.5"
"0.903265","2991.43","0.5907","0.011814","27.1"
"0.923292","3015.28","0.5975","0.01195","27.7"
"0.943226","3037.93","0.6119","0.012238","28.3"
"0.9633","3060.49","0.613","0.01226","28.9"
"0.98328","3082.18","0.6249","0.012498","29.5"
"1.00331","3103.52","0.6352","0.012704","30.1"
"1.02329","3123.44","0.6506","0.013012","30.7"
"1.04327","3142.93","0.66","0.0132","31.3"
"1.0632","3161.79","0.6635","0.01327","31.9"
"1.08323","3180.45","0.6785","0.01357","32.5"
"1.1033","3198.8","0.6812","0.013624","33.1"
"1.12333","3216.3","0.6952","0.013904","33.7"
"1.14331","3233.23","0.7032","0.014064","34.3"
"1.16329","3249.12","0.7142","0.014284","34.9"
"1.18327","3265.02","0.7293","0.014586","35.5"
"1.20325","3280.09","0.7383","0.014766","36.1"
"1.22328","3294.99","0.7493","0.014986","36.7"
"1.24331","3310.24","0.7611","0.015222","37.3"
"1.26333","3324.25","0.7662","0.015324","37.9"
"1.28331","3337.71","0.7837","0.015546","38.5"
"1.30329","3350.96","0.788","0.01576","39.1"
"1.32323","3363.54","0.8022","0.016044","39.7"
"1.3433","3376.22","0.8115","0.01623","40.3"
"1.36324","3388.68","0.8266","0.016532","40.9"
"1.38331","3400.98","0.8361","0.016722","41.5"
"1.40329","3412.58","0.8486","0.016972","42.1"
"1.42327","3423.77","0.8538","0.017076","42.7"
"1.4433","3435.05","0.868","0.01736","43.3"
"1.46323","3445.62","0.8787","0.017574","43.9"
"1.48326","3456.26","0.8915","0.01783","44.5"
"1.50328","3466.3","0.9072","0.018144","45.1"
"1.52326","3476.74","0.9169","0.018338","45.7"
"1.54329","3486.67","0.9288","0.018576","46.3"
"1.56332","3496.76","0.939","0.01878","46.9"
"1.5833","3506.24","0.9501","0.019002","47.5"
"1.60323","3515.36","0.9628","0.019256","48.1"
"1.62326","3524.5","0.9738","0.019476","48.7"
"1.64329","3533.38","0.9857","0.019714","49.3"
"1.66331","3542.43","0.9979","0.019958","49.9"
"1.68334","3551.38","1.0086","0.020172","50.5"
"1.70328","3559.53","1.0224","0.020448","51.1"
"1.7233","3568.19","1.0323","0.020646","51.7"
"1.74319","3575.49","1.0465","0.02093","52.3"
"1.76326","3583.77","1.0563","0.021126","52.9"
"1.78329","3591.55","1.0673","0.021346","53.5"
"1.80332","3599.68","1.0828","0.021656","54.1"
"1.8233","3607.57","1.0941","0.021882","54.7"
"1.84328","3614.52","1.1058","0.022102","55.3"
"1.86326","3621.82","1.118","0.02236","55.9"
"1.88324","3628.76","1.1289","0.022578","56.5"
"1.90322","3635.93","1.1423","0.022846","57.1"
"1.92329","3642.93","1.1547","0.023094","57.7"
"1.94332","3650.23","1.1652","0.023304","58.3"
"1.9633","3657.05","1.1799","0.023598","58.9"
"1.98328","3663.24","1.1913","0.023826","59.5"
"2.00326","3669.99","1.2038","0.024076","60.1"
"2.02324","3676.44","1.2144","0.024288","60.7"
"2.04327","3683.04","1.2266","0.024532","61.3"
"2.0633","3689.89","1.2402","0.024804","61.9"
"2.08328","3696.03","1.251","0.02502","62.5"
"2.10335","3702.51","1.2654","0.025308","63.1"
"2.12328","3708.11","1.279","0.02558","63.7"
"2.14326","3714.4","1.2896","0.025792","64.3"
"2.16324","3720.44","1.3014","0.026028","64.9"
"2.18327","3726.63","1.3155","0.02631","65.5"
"2.20325","3732.6","1.3299","0.026516","66.1"
"2.22333","3738.21","1.3405","0.02681","66.7"
"2.24331","3744.19","1.3533","0.027066","67.3"
"2.26333","3749.88","1.3688","0.027376","67.9"
"2.28322","3755.27","1.3808","0.027616","68.5"
"2.30325","3760.8","1.3931","0.027862","69.1"
"2.32327","3766.42","1.4026","0.028052","69.7"
"2.3433","3771.95","1.4144","0.028288","70.3"
"2.36333","3778.13","1.4283","0.028566","70.9"
"2.38331","3783.36","1.4406","0.028812","71.5"
"2.40329","3788.58","1.4543","0.029086","72.1"
"2.42327","3793.52","1.4675","0.02935","72.7"
"2.44325","3798.68","1.4774","0.029548","73.3"
"2.46323","3803.57","1.4922","0.029844","73.9"
"2.48335","3809.72","1.5031","0.030062","74.5"
"2.50333","3814.48","1.5167","0.030334","75.1"
"2.52331","3819.77","1.5304","0.030608","75.7"
"2.54325","3824.61","1.5463","0.030926","76.3"
"2.56327","3829.13","1.5551","0.031102","76.9"
"2.58325","3834.47","1.5666","0.031332","77.5"
"2.60328","3839.27","1.5785","0.03157","78.1"
"2.62326","3844.38","1.5935","0.03187","78.7"
"2.64333","3849.67","1.6051","0.032102","79.3"
"2.66327","3854.13","1.6201","0.032402","79.9"
"2.68325","3858.89","1.6328","0.032656","80.5"
"2.70323","3863.3","1.6425","0.03285","81.1"
"2.72321","3868.02","1.6554","0.033108","81.7"
"2.74328","3872.83","1.6677","0.033354","82.3"
"2.76326","3877.91","1.6798","0.033596","82.9"
"2.78329","3882.43","1.6948","0.033896","83.5"
"2.80332","3887.26","1.7057","0.034114","84.1"
"2.82325","3891.59","1.7202","0.034404","84.7"
"2.84328","3895.7","1.7317","0.034634","85.3"
"2.86326","3900.26","1.7427","0.034854","85.9"
"2.88329","3904.63","1.7578","0.035156","86.5"
"2.90331","3909.37","1.7702","0.035404","87.1"
"2.92329","3913.71","1.7844","0.035688","87.7"
"2.94332","3918.28","1.7964","0.035928","88.3"
"2.96325","3922.5","1.808","0.03616","88.9"
"2.98328","3926.96","1.8214","0.036428","89.5"
"3.00322","3930.97","1.833","0.03666","90.1"
"3.02334","3935.78","1.8488","0.036976","90.7"
"3.04327","3939.81","1.8598","0.037196","91.3"
"3.06334","3944.75","1.8714","0.037428","91.9"
"3.08328","3948.75","1.8857","0.037714","92.5"
"3.10326","3952.98","1.8984","0.037968","93.1"
"3.12324","3957","1.909","0.03818","93.7"
"3.14322","3960.87","1.9235","0.03847","94.3"
"3.16325","3965.57","1.9354","0.038708","94.9"
"3.18337","3969.88","1.9496","0.038992","95.5"
"3.2033","3974.26","1.9619","0.039238","96.1"
"3.22328","3977.76","1.9729","0.039458","96.7"
"3.24326","3981.81","1.9877","0.039754","97.3"
"3.26324","3985.67","1.9989","0.039978","97.9"
"3.28327","3989.98","2.2671","0.045342","98.5"
"3.30325","3994.47","2.2803","0.045606","99.1"
"3.32332","3998.48","2.2916","0.045832","99.7"
"3.3433","4002.49","2.3098","0.046196","100.3"
"3.36333","4006.38","2.3222","0.046444","100.9"
"3.38322","4010.05","2.3355","0.04671","101.5"
"3.40329","4014.26","2.3471","0.046942","102.1"
"3.42322","4017.86","2.3613","0.047226","102.7"
"3.4433","4021.94","2.3738","0.047476","103.3"
"3.46328","4025.72","2.3881","0.047762","103.9"
"3.48331","4029.84","2.4041","0.04799","104.5"
"3.50329","4034.1","2.416","0.04832","105.1"
"3.52327","4037.44","2.4273","0.048546","105.7"
"3.54325","4041.19","2.4393","0.048786","106.3"
"3.56327","4045.05","2.4538","0.049076","106.9"
"3.58325","4049.13","2.4691","0.049382","107.5"
"3.60333","4053.25","2.4814","0.049628","108.1"
"3.62331","4056.85","2.4924","0.049848","108.7"
"3.64329","4060.64","2.5101","0.050202","109.3"
"3.66327","4064.21","2.5215","0.05043","109.9"
"3.68325","4067.6","2.5332","0.050664","110.5"
"3.70328","4071.43","2.5487","0.050974","111.1"
"3.7233","4075.12","2.5641","0.051282","111.7"
"3.74333","4079.46","2.5801","0.051602","112.3"
"3.76331","4082.68","2.5896","0.051792","112.9"
"3.78329","4086.47","2.6034","0.052068","113.5"
"3.80323","4089.36","2.6145","0.05229","114.1"
"3.82325","4093.55","2.6296","0.052592","114.7"
"3.84323","4097.2","2.6459","0.052918","115.3"
"3.86331","4100.51","2.6568","0.053136","115.9"
"3.88329","4104.9","2.6697","0.053394","116.5"
"3.90331","4107.42","2.6834","0.053668","117.1"
"3.92325","4111.3","2.6964","0.053928","117.7"
"3.94327","4114.63","2.7083","0.054166","118.3"
"3.96321","4118.07","2.7228","0.054456","118.9"
"3.98328","4121.92","2.736","0.05472","119.5"
"4.00326","4125.45","2.7524","0.055048","120.1"
"4.02329","4129.13","2.7659","0.055318","120.7"
"4.04332","4132.35","2.7774","0.055548","121.3"
"4.06325","4135.94","2.7908","0.055816","121.9"
"4.08328","4139.11","2.8014","0.056028","122.5"
"4.10326","4142.38","2.8222","0.056444","123.1"
"4.12324","4145.82","2.8312","0.056624","123.7"
"4.14331","4149.14","2.8446","0.056892","124.3"
"4.16334","4152.97","2.8566","0.057132","124.9"
"4.18327","4155.9","2.8678","0.057356","125.5"
"4.2033","4159.49","2.882","0.05764","126.1"
"4.22323","4162.36","2.8956","0.057912","126.7"
"4.24326","4165.92","2.907","0.05814","127.3"
"4.26324","4169.3","2.9222","0.058444","127.9"
"4.28332","4172.78","2.9355","0.05871","128.5"
"4.3033","4176.27","2.9473","0.058946","129.1"
"4.32328","4179.45","2.9588","0.059176","129.7"
"4.34321","4182.49","2.9723","0.059446","130.3"
"4.36324","4185.23","2.9867","0.059734","130.9"
"4.38326","4188.48","3.0008","0.060016","131.5"
"4.40324","4191.99","3.0161","0.060322","132.1"
"4.42332","4195.84","3.0249","0.060498","132.7"
"4.4433","4198.66","3.0391","0.060782","133.3"
"4.46328","4201.96","3.0513","0.061026","133.9"
"4.48326","4204.5","3.064","0.06128","134.5"
"4.50324","4207.73","3.0794","0.061594","135.1"
"4.52327","4210.93","3.0926","0.061852","135.7"
"4.54329","4214.38","3.1056","0.062112","136.3"
"4.56327","4217.48","3.1185","0.06237","136.9"
"4.58335","4220.84","3.1306","0.062612","137.5"
"4.60324","4223.48","3.1454","0.062908","138.1"
"4.62331","4226.34","3.1608","0.063216","138.7"
"4.64324","4229.47","3.173","0.06346","139.3"
"4.66327","4232.54","3.1863","0.063726","139.9"
"4.68325","4235.66","3.196","0.06392","140.5"
"4.70332","4238.91","3.2109","0.064218","141.1"
"4.7233","4241.55","3.2246","0.064492","141.7"
"4.74328","4244.68","3.2371","0.064742","142.3"
"4.76327","4247.76","3.2528","0.065056","142.9"
"4.78325","4250.48","3.2668","0.065336","143.5"
"4.80327","4253.59","3.2791","0.065582","144.1"
"4.8233","4256.3","3.2927","0.065854","144.7"
"4.84333","4259.79","3.3041","0.066082","145.3"
"4.86331","4262.8","3.319","0.06638","145.9"
"4.88324","4265.34","3.3311","0.066622","146.5"
"4.90327","4268.22","3.3434","0.066868","147.1"
"4.92325","4270.75","3.3594","0.067188","147.7"
"4.94328","4273.77","3.37","0.0674","148.3"
"4.96335","4277.02","3.3816","0.067632","148.9"
"4.98328","4279.95","3.4","0.068","149.5"
"5.00336","4282.9","3.4079","0.068158","150.1"
"5.02324","4285.54","3.4226","0.068452","150.7"
"5.04327","4288.38","3.4372","0.068744","151.3"
"5.06325","4290.59","3.4491","0.068982","151.9"
"5.08328","4293.8","3.4644","0.069288","152.5"
"5.10331","4296.68","3.4725","0.06945","153.1"
"5.12333","4299.7","3.4901","0.069802","153.7"
"5.14327","4302.45","3.5024","0.070048","154.3"
"5.16325","4304.5","3.5148","0.070296","154.9"
"5.18323","4307.53","3.5299","0.070598","155.5"
"5.20325","4309.84","3.54","0.0708","156.1"
"5.22328","4313.15","3.5568","0.071136","156.7"
"5.24331","4315.94","3.5699","0.071398","157.3"
"5.26329","4318.71","3.5797","0.071594","157.9"
"5.28332","4321.1","3.5959","0.071918","158.5"
"5.30325","4323.46","3.6091","0.072182","159.1"
"5.32328","4326.2","3.6208","0.072416","159.7"
"5.34326","4328.76","3.6325","0.07265","160.3"
"5.36324","4331.5","3.6485","0.07297","160.9"
"5.38336","4334.64","3.6622","0.073244","161.5"
"5.40329","4336.68","3.6784","0.073568","162.1"
"5.42332","4339.45","3.6879","0.073758","162.7"
"5.44325","4341.51","3.7005","0.07401","163.3"
"5.46328","4344.17","3.7144","0.074288","163.9"
"5.48321","4346.46","3.7282","0.074564","164.5"
"5.50329","4349.32","3.7417","0.074834","165.1"
"5.52327","4351.88","3.7567","0.075134","165.7"
"5.54334","4354.57","3.7708","0.075416","166.3"
"5.56327","4356.88","3.7807","0.075614","166.9"
"5.58326","4359.1","3.7994","0.075988","167.5"
"5.60324","4361.49","3.8115","0.07623","168.1"
"5.62326","4363.59","3.8224","0.076448","168.7"
"5.64324","4365.94","3.8383","0.076766","169.3"
"5.66332","4369.07","3.8529","0.077058","169.9"
"5.6833","4371.51","3.8673","0.077346","170.5"
"5.70328","4373.73","3.8803","0.077606","171.1"
"5.72326","4376.01","3.893","0.07786","171.7"
"5.74324","4377.87","3.9099","0.078198","172.3"
"5.76327","4380.37","3.9245","0.07849","172.9"
"5.78329","4382.95","3.9407","0.078696","173.5"
"5.80332","4385.64","3.9517","0.079034","174.1"
"5.8233","4387.97","3.9668","0.079336","174.7"
"5.84328","4389.6","3.9802","0.079604","175.3"
"5.86321","4391.8","3.9917","0.079834","175.9"
"5.88329","4394.06","4.0064","0.080128","176.5"
"5.90322","4396.79","4.0239","0.080478","177.1"
"5.92334","4398.93","4.0375","0.08075","177.7"
"5.94328","4401.38","4.0515","0.08103","178.3"
"5.9633","4403.23","4.0611","0.081222","178.9"
"5.98328","4405.84","4.0734","0.081468","179.5"
"6.00326","4407.83","4.0915","0.08183","180.1"
"6.02324","4410.06","4.1049","0.082098","180.7"
"6.04327","4412.6","4.1214","0.082428","181.3"
"6.0633","4414.62","4.1352","0.082704","181.9"
"6.08333","4416.97","4.1479","0.082958","182.5"
"6.10331","4418.89","4.1622","0.083244","183.1"
"6.12329","4420.63","4.1774","0.083548","183.7"
"6.14327","4422.93","4.1964","0.083832","184.3"
"6.16325","4424.78","4.2079","0.084158","184.9"
"6.18323","4426.77","4.2195","0.08439","185.5"
"6.2033","4429.24","4.2346","0.084692","186.1"
"6.22333","4431.79","4.2472","0.084944","186.7"
"6.24331","4433.73","4.2638","0.085276","187.3"
"6.26329","4436.17","4.279","0.08558","187.9"
"6.28322","4437.61","4.2918","0.085836","188.5"
"6.3033","4440.17","4.3099","0.086198","189.1"
"6.32323","4441.93","4.3234","0.086468","189.7"
"6.3433","4444.43","4.3312","0.086624","190.3"
"6.36333","4446.57","4.3509","0.087018","190.9"
"6.38327","4448.3","4.3617","0.087234","191.5"
"6.40329","4449.87","4.3791","0.087582","192.1"
"6.42323","4451.67","4.3922","0.087844","192.7"
"6.44325","4453.94","4.4048","0.088096","193.3"
"6.46328","4456.01","4.4196","0.088392","193.9"
"6.48331","4458.52","4.4334","0.088668","194.5"
"6.50329","4460.52","4.4504","0.089008","195.1"
"6.52331","4462.44","4.4643","0.089286","195.7"
"6.5433","4463.87","4.4747","0.089494","196.3"
"6.56323","4465.94","4.4903","0.089806","196.9"
"6.58326","4467.96","4.5062","0.090124","197.5"
"6.60328","4470.17","4.5192","0.090384","198.1"
"6.62331","4472.31","4.5321","0.090642","198.7"
"6.64334","4474.05","4.5492","0.090984","199.3"
"6.66327","4475.94","4.5611","0.091222","199.9"
"6.68334","4478.07","4.5742","0.091484","200.5"
"6.70323","4479.67","4.588","0.09176","201.1"
"6.72326","4481.58","4.6044","0.092088","201.7"
"6.74329","4483.46","4.6193","0.092386","202.3"
"6.76331","4485.62","4.6353","0.092706","202.9"
"6.78334","4487.37","4.6461","0.092922","203.5"
"6.80327","4489.24","4.6575","0.09315","204.1"
"6.82325","4491.03","4.6752","0.093504","204.7"
"6.84323","4492.4","4.6885","0.09377","205.3"
"6.86322","4494.34","4.7067","0.094134","205.9"
"6.88329","4496.17","4.7195","0.09439","206.5"
"6.90332","4498.47","4.7292","0.094584","207.1"
"6.92334","4500.41","4.745","0.0949","207.7"
"6.94328","4502","4.7577","0.095154","208.3"
"6.96326","4503.61","4.7735","0.09547","208.9"
"6.98324","4505.38","4.7874","0.095748","209.5"
"7.00326","4506.93","4.8007","0.096014","210.1"
"7.02329","4508.96","4.8189","0.096378","210.7"
"7.04327","4510.7","4.8304","0.096608","211.3"
"7.06335","4513.08","4.8396","0.096792","211.9"
"7.08323","4514","4.8562","0.097124","212.5"
"7.10326","4515.71","4.8699","0.097398","213.1"
"7.12324","4517.38","4.889","0.09778","213.7"
"7.14327","4519.35","4.9002","0.098004","214.3"
"7.16329","4521.24","4.9145","0.09829","214.9"
"7.18328","4522.66","4.9266","0.098532","215.5"
"7.20326","4524.49","4.9398","0.098796","216.1"
"7.22328","4525.75","4.9543","0.099086","216.7"
"7.24326","4527.31","4.9676","0.099352","217.3"
"7.26324","4529.31","4.9819","0.099638","217.9"
"7.28327","4530.8","4.9998","0.099996","218.5"
"7.30325","4532.81","5.011","0.10022","219.1"
"7.32332","4534.3","5.0238","0.100476","219.7"
"7.34331","4536.25","5.0388","0.100776","220.3"
"7.36329","4537.46","5.0545","0.10109","220.9"
"7.38327","4539.6","5.069","0.10138","221.5"
"7.40325","4541.03","5.0791","0.101582","222.1"
"7.42323","4542.38","5.097","0.10194","222.7"
"7.44335","4544.14","5.1088","0.102176","223.3"
"7.46328","4545.56","5.121","0.10242","223.9"
"7.48335","4547.66","5.1354","0.102708","224.5"
"7.50324","4548.94","5.1478","0.102956","225.1"
"7.52327","4550.14","5.1627","0.103254","225.7"
"7.54325","4551.49","5.1782","0.103564","226.3"
"7.56328","4553.26","5.1896","0.103792","226.9"
"7.58326","4554.98","5.2037","0.104074","227.5"
"7.60338","4557.11","5.2152","0.104304","228.1"
"7.62326","4558.46","5.2313","0.104626","228.7"
"7.64324","4559.7","5.2471","0.104942","229.3"
"7.66323","4560.92","5.2587","0.105174","229.9"
"7.68321","4562.59","5.2765","0.10553","230.5"
"7.70328","4564.44","5.2874","0.105748","231.1"
"7.72331","4566.17","5.3017","0.106034","231.7"
"7.74329","4567.59","5.3181","0.106362","232.3"
"7.76331","4569.09","5.3317","0.106634","232.9"
"7.78325","4570.45","5.3458","0.106916","233.5"
"7.80327","4571.54","5.3595","0.10719","234.1"
"7.82325","4573.47","5.3739","0.107478","234.7"
"7.84328","4575.06","5.3878","0.107756","235.3"
"7.86331","4576.65","5.4008","0.108016","235.9"
"7.88329","4578.18","5.4162","0.108324","236.5"
"7.90332","4579.45","5.4313","0.108626","237.1"
"7.92325","4581.02","5.4452","0.108904","237.7"
"7.94328","4582.56","5.4615","0.10923","238.3"
"7.96321","4583.94","5.4751","0.109502","238.9"
"7.98329","4585.95","5.4882","0.109764","239.5"
"8.00327","4586.79","5.5029","0.110058","240.1"
"8.02329","4588.52","5.5203","0.110406","240.7"
"8.04327","4589.89","5.5333","0.110666","241.3"
"8.06325","4590.86","5.5492","0.110984","241.9"
"8.08328","4592.4","5.5617","0.111234","242.5"
"8.10321","4593.5","5.5781","0.111562","243.1"
"8.12324","4595.11","5.5945","0.11189","243.7"
"8.14332","4596.97","5.6058","0.112116","244.3"
"8.1633","4598.31","5.619","0.11238","244.9"
"8.18332","4599.85","5.6359","0.112718","245.5"
"8.20326","4601.13","5.6519","0.113038","246.1"
"8.22324","4602.23","5.6637","0.113274","246.7"
"8.24326","4603.56","5.6762","0.113524","247.3"
"8.26329","4605.17","5.6927","0.113854","247.9"
"8.28332","4606.81","5.7087","0.114174","248.5"
"8.3033","4608.18","5.7249","0.114498","249.1"
"8.32332","4609.63","5.7364","0.114728","249.7"
"8.34321","4610.03","5.7519","0.115038","250.3"
"8.36329","4611.81","5.7685","0.11537","250.9"
"8.38322","4612.8","5.7849","0.115698","251.5"
"8.40329","4614.52","5.8017","0.116034","252.1"
"8.42332","4616.09","5.8124","0.116248","252.7"
"8.4433","4617.3","5.8276","0.116552","253.3"
"8.46328","4618.48","5.8471","0.116942","253.9"
"8.48326","4619.27","5.8569","0.117138","254.5"
"8.50324","4620.73","5.874","0.11748","255.1"
"8.52327","4621.99","5.8872","0.117744","255.7"
"8.54325","4623.43","5.9008","0.118016","256.3"
"8.56332","4624.94","5.919","0.11838","256.9"
"8.5833","4626.3","5.9287","0.118574","257.5"
"8.60328","4627.74","5.9444","0.118888","258.1"
"8.62326","4628.57","5.9616","0.119232","258.7"
"8.64325","4629.99","5.9731","0.119462","259.3"
"8.66327","4630.95","5.9909","0.119818","259.9"
"8.6833","4632.5","6.0054","0.120108","260.5"
"8.70333","4633.92","6.0204","0.120408","261.1"
"8.72331","4634.97","6.0349","0.120698","261.7"
"8.74329","4636.62","6.0475","0.12095","262.3"
"8.76322","4637.31","6.0677","0.121354","262.9"
"8.78325","4638.7","6.0786","0.121572","263.5"
"8.80323","4639.76","6.0916","0.121832","264.1"
"8.8233","4641.12","6.1095","0.12219","264.7"
"8.84333","4642.79","6.1215","0.12243","265.3"
"8.86331","4643.95","6.1381","0.122762","265.9"
"8.88324","4644.97","6.1514","0.123028","266.5"
"8.90327","4646.12","6.1658","0.123316","267.1"
"8.9232","4646.98","6.1855","0.12371","267.7"
"8.94328","4648.37","6.1998","0.123996","268.3"
"8.96331","4649.76","6.211","0.12422","268.9"
"8.98329","4651.2","6.2269","0.124538","269.5"
"9.00331","4652.73","6.2423","0.124846","270.1"
"9.02325","4653.39","6.2557","0.125114","270.7"
"9.04327","4654.41","6.2697","0.125394","271.3"
"9.06325","4655.78","6.2884","0.125768","271.9"
"9.08328","4657.36","6.3026","0.126052","272.5"
"9.10331","4658.34","6.3143","0.126286","273.1"
"9.12333","4659.72","6.3334","0.126668","273.7"
"9.14327","4660.65","6.3456","0.126912","274.3"
"9.1633","4661.81","6.3634","0.127268","274.9"
"9.18323","4663.03","6.3792","0.127584","275.5"
"9.20326","4664.22","6.3904","0.127808","276.1"
"9.22328","4665.92","6.4068","0.128136","276.7"
"9.24331","4666.7","6.4227","0.128454","277.3"
"9.26329","4667.86","6.4356","0.128712","277.9"
"9.28327","4669.03","6.4533","0.129066","278.5"
"9.30325","4670.03","6.467","0.12934","279.1"
"9.32323","4671","6.4846","0.129692","279.7"
"9.34326","4672.23","6.4962","0.129924","280.3"
"9.36324","4673.36","6.5119","0.130238","280.9"
"9.38331","4674.87","6.5266","0.130532","281.5"
"9.40329","4675.97","6.5413","0.130826","282.1"
"9.42327","4677.17","6.5599","0.131198","282.7"
"9.44326","4677.81","6.5746","0.131492","283.3"
"9.46324","4678.79","6.5883","0.131766","283.9"
"9.48326","4680.04","6.6014","0.132028","284.5"
"9.50329","4680.86","6.6172","0.132344","285.1"
"9.52332","4682.02","6.6325","0.13265","285.7"
"9.54334","4683.58","6.6503","0.133006","286.3"
"9.56323","4684.25","6.6653","0.133306","286.9"
"9.5833","4685.36","6.6796","0.133592","287.5"
"9.60319","4686.06","6.6936","0.133872","288.1"
"9.62327","4687.43","6.7088","0.134176","288.7"
"9.64329","4688.81","6.7242","0.134484","289.3"
"9.66332","4690.07","6.7387","0.134774","289.9"
"9.6833","4691","6.7565","0.13513","290.5"
"9.70328","4691.89","6.7683","0.135366","291.1"
"9.72326","4692.85","6.7853","0.135706","291.7"
"9.74324","4693.54","6.797","0.13594","292.3"
"9.76327","4695.27","6.8106","0.136212","292.9"
"9.7833","4695.83","6.8299","0.136598","293.5"
"9.80332","4697.42","6.8475","0.13695","294.1"
"9.8233","4698.07","6.8611","0.137222","294.7"
"9.84324","4698.82","6.8761","0.137522","295.3"
"9.86326","4700.25","6.8918","0.137836","295.9"
"9.88324","4701.36","6.9096","0.138192","296.5"
"9.90323","4702.23","6.9208","0.138416","297.1"
"9.92335","4703.68","6.9344","0.138688","297.7"
"9.94328","4704.58","6.9533","0.139066","298.3"
"9.96335","4705.77","6.9694","0.139388","298.9"
"9.98324","4706.06","6.9829","0.139658","299.5"
"10.0033","4707.06","6.9962","0.139924","300.1"
"10.0232","4707.78","7.0148","0.140296","300.7"
"10.0433","4708.93","7.0285","0.14057","301.3"
"10.0633","4709.95","7.0456","0.140912","301.9"
"10.0833","4711.37","7.0586","0.141172","302.5"
"10.1033","4712.19","7.076","0.14152","303.1"
"10.1233","4713.1","7.0916","0.141832","303.7"
"10.1432","4713.81","7.1058","0.142116","304.3"
"10.1633","4714.58","7.117","0.14234","304.9"
"10.1833","4715.76","7.1314","0.142628","305.5"
"10.2033","4717","7.1521","0.143042","306.1"
"10.2233","4718.03","7.1627","0.143254","306.7"
"10.2433","4719.02","7.1784","0.143568","307.3"
"10.2632","4719.7","7.1959","0.143918","307.9"
"10.2833","4720.46","7.2097","0.144194","308.5"
"10.3033","4721.79","7.2259","0.144518","309.1"
"10.3233","4722.54","7.2373","0.144746","309.7"
"10.3434","4723.8","7.2567","0.145134","310.3"
"10.3633","4724.35","7.2721","0.145442","310.9"
"10.3833","4725.53","7.2851","0.145702","311.5"
"10.4032","4725.94","7.3008","0.146016","312.1"
"10.4233","4727.14","7.3135","0.14627","312.7"
"10.4432","4727.86","7.3333","0.146666","313.3"
"10.4633","4728.81","7.348","0.14696","313.9"
"10.4833","4730.05","7.3613","0.147226","314.5"
"10.5033","4730.93","7.3746","0.147492","315.1"
"10.5233","4731.54","7.3879","0.147758","315.7"
"10.5433","4732.4","7.4029","0.148058","316.3"
"10.5632","4733.7","7.4249","0.148498","316.9"
"10.5833","4734.4","7.4372","0.148744","317.5"
"10.6032","4735.18","7.4553","0.149106","318.1"
"10.6233","4736.32","7.4689","0.149378","318.7"
"10.6433","4737.03","7.4814","0.149628","319.3"
"10.6633","4738.4","7.4961","0.149922","319.9"
"10.6833","4738.93","7.5121","0.150242","320.5"
"10.7032","4739.45","7.5294","0.150588","321.1"
"10.7233","4740.76","7.5429","0.150858","321.7"
"10.7433","4741.16","7.5575","0.15115","322.3"
"10.7633","4742.74","7.5724","0.151448","322.9"
"10.7833","4743.68","7.5828","0.151656","323.5"
"10.8033","4744.52","7.6054","0.152108","324.1"
"10.8233","4744.75","7.6185","0.15237","324.7"
"10.8432","4745.44","7.6311","0.152622","325.3"
"10.8632","4746.27","7.6502","0.153004","325.9"
"10.8833","4747.78","7.6643","0.153286","326.5"
"10.9033","4748.4","7.6787","0.153574","327.1"
"10.9233","4749.53","7.6943","0.153886","327.7"
"10.9433","4750.02","7.705","0.1541","328.3"
"10.9633","4750.55","7.724","0.15448","328.9"
"10.9832","4751.41","7.7401","0.154802","329.5"
"11.0033","4752.22","7.7503","0.155006","330.1"
"11.0233","4752.52","7.7647","0.155294","330.7"
"11.0433","4753.02","7.7835","0.15567","331.3"
"11.0633","4753.99","7.7981","0.155962","331.9"
"11.0833","4754.39","7.8165","0.15633","332.5"
"11.1033","4755.87","7.8282","0.156564","333.1"
"11.1232","4756.38","7.8423","0.156846","333.7"
"11.1433","4757.2","7.8542","0.157084","334.3"
"11.1633","4758.17","7.8733","0.157466","334.9"
"11.1833","4759.04","7.8865","0.15773","335.5"
"11.2033","4760.24","7.9012","0.158024","336.1"
"11.2233","4760.37","7.9206","0.158412","336.7"
"11.2432","4760.61","7.9347","0.158694","337.3"
"11.2633","4761.19","7.9497","0.158994","337.9"
"11.2832","4761.97","7.9592","0.159184","338.5"
"11.3033","4762.86","7.9727","0.159454","339.1"
"11.3233","4763.65","7.9866","0.159732","339.7"
"11.3433","4764.75","8.0065","0.16013","340.3"
"11.3633","4765.69","8.0222","0.160444","340.9"
"11.3832","4766.08","8.0352","0.160704","341.5"
"11.4032","4767.05","8.0528","0.161056","342.1"
"11.4233","4767.82","8.066","0.16132","342.7"
"11.4433","4768.52","8.0833","0.161666","343.3"
"11.4633","4769.57","8.0967","0.161934","343.9"
"11.4833","4770.58","8.1113","0.162226","344.5"
"11.5033","4771.19","8.1303","0.162606","345.1"
"11.5232","4771.78","8.1468","0.162936","345.7"
"11.5433","4772.91","8.1588","0.163176","346.3"
"11.5633","4773.57","8.1726","0.163452","346.9"
"11.5833","4774.61","8.1903","0.163806","347.5"
"11.6033","4775.63","8.2075","0.16415","348.1"
"11.6233","4775.82","8.2233","0.164466","348.7"
"11.6433","4777.05","8.2368","0.164736","349.3"
"11.6632","4776.98","8.2509","0.165018","349.9"
"11.6833","4778.07","8.2669","0.165338","350.5"
"11.7033","4778.86","8.2799","0.165598","351.1"
"11.7233","4779.83","8.2935","0.16587","351.7"
"11.7433","4780.76","8.3123","0.166246","352.3"
"11.7633","4780.93","8.3245","0.16649","352.9"
"11.7833","4782.05","8.3452","0.166904","353.5"
"11.8033","4782.62","8.359","0.16718","354.1"
"11.8233","4783.56","8.3728","0.167456","354.7"
"11.8433","4784.35","8.3862","0.167724","355.3"
"11.8633","4785.32","8.4059","0.168118","355.9"
"11.8833","4786.35","8.4244","0.168488","356.5"
"11.9033","4786.49","8.4373","0.168746","357.1"
"11.9233","4787.74","8.4492","0.168984","357.7"
"11.9432","4788.09","8.4642","0.169284","358.3"
"11.9633","4788.84","8.4782","0.169564","358.9"
"11.9833","4789.38","8.5003","0.170006","359.5"
"12.0033","4790.29","8.5132","0.170264","360.1"
"12.0233","4791.65","8.5288","0.170576","360.7"
"12.0433","4791.68","8.5473","0.170946","361.3"
"12.0633","4792.52","8.5604","0.171208","361.9"
"12.0832","4792.74","8.5781","0.171562","362.5"
"12.1033","4793.24","8.5891","0.171782","363.1"
"12.1233","4794.23","8.6052","0.172104","363.7"
"12.1433","4795.19","8.6184","0.172368","364.3"
"12.1633","4796.18","8.6348","0.172696","364.9"
"12.1833","4796.99","8.6511","0.173022","365.5"
"12.2032","4797.12","8.6708","0.173416","366.1"
"12.2232","4797.7","8.6814","0.173628","366.7"
"12.2433","4798.75","8.7012","0.174024","367.3"
"12.2633","4799.67","8.7129","0.174258","367.9"
"12.2833","4800.74","8.7308","0.174616","368.5"
"12.3033","4801.28","8.7463","0.174926","369.1"
"12.3233","4801.63","8.7567","0.175134","369.7"
"12.3433","4802.15","8.7796","0.175592","370.3"
"12.3632","4803","8.7949","0.175898","370.9"
"12.3833","4802.98","8.8055","0.17611","371.5"
"12.4033","4804.1","8.8193","0.176386","372.1"
"12.4233","4804.85","8.8338","0.176676","372.7"
"12.4434","4805.19","8.8507","0.177014","373.3"
"12.4632","4805.49","8.8635","0.17727","373.9"
"12.4833","4806.03","8.88","0.1776","374.5"
"12.5032","4806.88","8.8956","0.177912","375.1"
"12.5233","4807.69","8.9104","0.178208","375.7"
"12.5433","4808.53","8.9295","0.17859","376.3"
"12.5634","4809.43","8.9412","0.178824","376.9"
"12.5833","4810.01","8.9546","0.179092","377.5"
"12.6033","4810.55","8.9718","0.179436","378.1"
"12.6233","4811.11","8.9829","0.179658","378.7"
"12.6432","4811.53","8.9976","0.179952","379.3"
"12.6633","4812.07","9.0119","0.180238","379.9"
"12.6833","4812.87","9.0257","0.180514","380.5"
"12.7033","4813.7","9.0458","0.180916","381.1"
"12.7233","4814.3","9.0549","0.181098","381.7"
"12.7432","4814.87","9.0733","0.181466","382.3"
"12.7633","4815.62","9.088","0.18176","382.9"
"12.7833","4816.13","9.1007","0.182014","383.5"
"12.8033","4816.35","9.1196","0.182392","384.1"
"12.8234","4817.5","9.1372","0.182744","384.7"
"12.8433","4818.2","9.147","0.18294","385.3"
"12.8633","4817.8","9.1589","0.183178","385.9"
"12.8832","4817.73","9.1723","0.183446","386.5"
"12.9033","4818.26","9.1917","0.183834","387.1"
"12.9232","4818.92","9.2027","0.184054","387.7"
"12.9433","4820.39","9.2217","0.184434","388.3"
"12.9633","4820.62","9.2348","0.184696","388.9"
"12.9833","4821.83","9.2487","0.184974","389.5"
"13.0033","4821.31","9.2568","0.185136","390.1"
"13.0232","4821.75","9.2798","0.185596","390.7"
"13.0433","4822.52","9.2885","0.18577","391.3"
"13.0633","4822.89","9.3087","0.186174","391.9"
"13.0833","4824.05","9.3254","0.186508","392.5"
"13.1033","4824.52","9.3369","0.186738","393.1"
"13.1233","4825.43","9.3525","0.18705","393.7"
"13.1433","4826.24","9.3564","0.187128","394.3"
"13.1633","4826.77","9.3718","0.187436","394.9"
"13.1832","4827.57","9.3908","0.187816","395.5"
"13.2033","4828.01","9.4103","0.188206","396.1"
"13.2232","4828.63","9.4262","0.188524","396.7"
"13.2433","4829.41","9.4351","0.188702","397.3"
"13.2633","4830.2","9.4476","0.188952","397.9"
"13.2833","4830.89","9.4676","0.189352","398.5"
"13.3033","4831.08","9.4841","0.189682","399.1"
"13.3233","4831.87","9.498","0.18996","399.7"
"13.3432","4831.86","9.5094","0.190188","400.3"
"13.3633","4833","9.5287","0.190574","400.9"
"13.3833","4833.66","9.5413","0.190826","401.5"
"13.4033","4834.42","9.5472","0.190944","402.1"
"13.4233","4835.02","9.5678","0.191356","402.7"
"13.4432","4834.98","9.5721","0.191442","403.3"
"13.4632","4835.69","9.5938","0.191876","403.9"
"13.4833","4836.46","9.6092","0.192184","404.5"
"13.5033","4837.29","9.6184","0.192368","405.1"
"13.5234","4838.01","9.6344","0.192688","405.7"
"13.5433","4838.37","9.6503","0.193006","406.3"
"13.5633","4839.19","9.659","0.19318","406.9"
"13.5833","4839.42","9.6803","0.193606","407.5"
"13.6032","4839.92","9.6915","0.19383","408.1"
"13.6233","4840.84","9.7042","0.194084","408.7"
"13.6433","4841.54","9.7173","0.194346","409.3"
"13.6633","4842.33","9.7294","0.194588","409.9"
"13.6833","4842.55","9.7486","0.194972","410.5"
"13.7033","4843.14","9.7609","0.195218","411.1"
"13.7232","4843.54","9.7771","0.195488","411.7"
"13.7433","4844.28","9.7904","0.195808","412.3"
"13.7633","4844.85","9.8007","0.196014","412.9"
"13.7833","4845.4","9.8156","0.196312","413.5"
"13.8033","4846.57","9.8316","0.196632","414.1"
"13.8233","4846.72","9.8459","0.196918","414.7"
"13.8433","4847.32","9.859","0.19718","415.3"
"13.8633","4847.66","9.8692","0.197384","415.9"
"13.8832","4848.08","9.8897","0.197794","416.5"
"13.9033","4848.62","9.9029","0.198058","417.1"
"13.9233","4849.42","9.9114","0.198228","417.7"
"13.9433","4850.4","9.9307","0.198614","418.3"
"13.9633","4850.89","9.9453","0.198906","418.9"
"13.9833","4851.25","9.9576","0.199152","419.5"
"14.0033","4851.6","9.9731","0.199462","420.1"
"14.0232","4851.91","9.9874","0.199748","420.7"
"14.0433","4852.65","9.998","0.19996","421.3"
"14.0633","4853.17","10.0122","0.200244","421.9"
"14.0833","4854.03","10.0309","0.200618","422.5"
"14.1033","4854.36","10.0435","0.20087","423.1"
"14.1233","4855.15","10.0595","0.20119","423.7"
"14.1432","4855.12","10.0747","0.201494","424.3"
"14.1633","4856.06","10.084","0.20168","424.9"
"14.1833","4856.61","10.0964","0.201928","425.5"
"14.2033","4857.06","10.1119","0.202238","426.1"
"14.2233","4857.33","10.1232","0.202464","426.7"
"14.2433","4857.79","10.138","0.20276","427.3"
"14.2632","4858.15","10.1557","0.203114","427.9"
"14.2833","4858.86","10.1696","0.203392","428.5"
"14.3033","4859.48","10.177","0.20354","429.1"
"14.3233","4859.99","10.1941","0.203882","429.7"
"14.3433","4861.14","10.2128","0.204256","430.3"
"14.3633","4860.84","10.2243","0.204486","430.9"
"14.3833","4861.68","10.2428","0.204856","431.5"
"14.4033","4861.87","10.2536","0.205072","432.1"
"14.4232","4862.6","10.2684","0.205368","432.7"
"14.4433","4863.14","10.2886","0.205772","433.3"
"14.4633","4863.81","10.2956","0.205912","433.9"
"14.4833","4864.68","10.3117","0.206234","434.5"
"14.5033","4865.43","10.3313","0.206626","435.1"
"14.5233","4865.79","10.3471","0.206942","435.7"
"14.5433","4866.05","10.3616","0.207232","436.3"
"14.5632","4866.09","10.3674","0.207348","436.9"
"14.5833","4866.45","10.3842","0.207684","437.5"
"14.6033","4866.98","10.4036","0.208072","438.1"
"14.6233","4867.12","10.4127","0.208254","438.7"
"14.6433","4867.87","10.4321","0.208642","439.3"
"14.6633","4868.53","10.4482","0.208964","439.9"
"14.6833","4868.76","10.4593","0.209186","440.5"
"14.7032","4869.04","10.4738","0.209476","441.1"
"14.7233","4869.95","10.4896","0.209792","441.7"
"14.7433","4870.61","10.5029","0.210058","442.3"
"14.7633","4871.54","10.5153","0.210306","442.9"
"14.7833","4871.89","10.5327","0.210654","443.5"
"14.8032","4871.97","10.5489","0.210978","444.1"
"14.8233","4872.58","10.562","0.21124","444.7"
"14.8432","4873.01","10.5718","0.211436","445.3"
"14.8633","4873.59","10.592","0.21184","445.9"
"14.8833","4874.71","10.6063","0.212126","446.5"
"14.9033","4874.93","10.6287","0.212574","447.1"
"14.9233","4875.8","10.6384","0.212768","447.7"
"14.9432","4875.46","10.6561","0.213122","448.3"
"14.9633","4876.66","10.666","0.21332","448.9"
"14.9832","4876.81","10.6832","0.213664","449.5"
"15.0033","4877.81","10.7025","0.21405","450.1"
"15.0233","4878.11","10.7135","0.21427","450.7"
"15.0433","4878.69","10.7344","0.214688","451.3"
"15.0633","4879.21","10.7468","0.214936","451.9"
"15.0833","4879.29","10.7559","0.215118","452.5"
"15.1033","4879.96","10.7781","0.215562","453.1"
"15.1232","4880.16","10.7907","0.215814","453.7"
"15.1433","4880.98","10.8036","0.216072","454.3"
"15.1633","4881.33","10.8177","0.216354","454.9"
"15.1833","4882.06","10.8319","0.216638","455.5"
"15.2033","4882.86","10.8505","0.21701","456.1"
"15.2233","4882.77","10.8598","0.217196","456.7"
"15.2433","4883.48","10.8764","0.217528","457.3"
"15.2633","4883.68","10.8932","0.217864","457.9"
"15.2832","4883.93","10.9075","0.21815","458.5"
"15.3033","4885.01","10.9149","0.218298","459.1"
"15.3233","4885.65","10.9307","0.218614","459.7"
"15.3433","4885.86","10.951","0.21902","460.3"
"15.3632","4886.16","10.9653","0.219306","460.9"
"15.3833","4886.49","10.9737","0.219474","461.5"
"15.4033","4886.71","10.9911","0.219822","462.1"
"15.4233","4887.68","11.0107","0.220214","462.7"
"15.4433","4888.25","11.0191","0.220382","463.3"
"15.4633","4888.49","11.0382","0.220764","463.9"
"15.4833","4889.13","11.0455","0.22091","464.5"
"15.5032","4888.52","11.0675","0.22135","465.1"
"15.5232","4888.875","11.0758","0.221516","465.7"
"15.5433","4889.37","11.0895","0.22179","466.3"
"15.5633","4890","11.1079","0.222158","466.9"
"15.5833","4891.05","11.1195","0.22239","467.5"
"15.6033","4890.65","11.1333","0.222666","468.1"
"15.6233","4890.84","11.1477","0.222954","468.7"
"15.6433","4891.22","11.1598","0.223196","469.3"
"15.6632","4891.82","11.1764","0.223528","469.9"
"15.6833","4892.67","11.1828","0.223656","470.5"
"15.7033","4892.45","11.2032","0.224064","471.1"
"15.7233","4893.45","11.2201","0.224402","471.7"
"15.7433","4894.06","11.2254","0.224508","472.3"
"15.7633","4894.45","11.2431","0.224862","472.9"
"15.7833","4894.02","11.2564","0.225128","473.5"
"15.8033","4894.63","11.2734","0.225468","474.1"
"15.8232","4895.11","11.2863","0.225726","474.7"
"15.8433","4894.72","11.299","0.22598","475.3"
"15.8633","4894.77","11.3164","0.226328","475.9"
"15.8833","4895.53","11.3371","0.226742","476.5"
"15.9033","4896.21","11.3442","0.226884","477.1"
"15.9233","4896.42","11.3594","0.227188","477.7"
"15.9432","4896.34","11.3713","0.227426","478.3"
"15.9633","4896.89","11.3818","0.227636","478.9"
"15.9833","4897.72","11.4026","0.228052","479.5"
"16.0033","4898.38","11.4084","0.228168","480.1"
"16.0233","4898.39","11.4172","0.228344","480.7"
"16.0433","4898.64","11.4376","0.228752","481.3"
"16.0633","4899.34","11.4551","0.229102","481.9"
"16.0832","4899.32","11.4702","0.229404","482.5"
"16.1033","4900.26","11.4776","0.229552","483.1"
"16.1233","4900.82","11.4974","0.229948","483.7"
"16.1433","4901.32","11.5044","0.230088","484.3"
"16.1633","4901.7","11.5259","0.230518","484.9"
"16.1833","4902.08","11.5349","0.230698","485.5"
"16.2032","4902.1","11.5478","0.230956","486.1"
"16.2233","4903.22","11.5563","0.231126","486.7"
"16.2432","4902.47","11.5809","0.231618","487.3"
"16.2633","4903.02","11.5867","0.231734","487.9"
"16.2833","4903.52","11.6088","0.232176","488.5"
"16.3033","4903.74","11.6174","0.232348","489.1"
"16.3233","4904.43","11.6254","0.232508","489.7"
"16.3432","4904.38","11.6443","0.232886","490.3"
"16.3632","4905.34","11.654","0.23308","490.9"
"16.3833","4905.36","11.672","0.233394","491.5"
"16.4033","4905.88","11.688","0.23376","492.1"
"16.4233","4906.4","11.7009","0.234018","492.7"
"16.4433","4907.44","11.7066","0.234132","493.3"
"16.4633","4907.79","11.7175","0.23435","493.9"
"16.4832","4907.66","11.7368","0.234736","494.5"
"16.5032","4908.05","11.7498","0.234996","495.1"
"16.5233","4908.36","11.7591","0.235182","495.7"
"16.5433","4909.11","11.7801","0.235602","496.3"
"16.5633","4908.08","11.7994","0.235988","496.9"
"16.5833","4908.47","11.8014","0.236028","497.5"
"16.6033","4908.97","11.8201","0.236402","498.1"
"16.6232","4908.11","11.8406","0.236812","498.7"
"16.6433","4908.7","11.8471","0.236942","499.3"
"16.6633","4909.17","11.8656","0.237312","499.9"
"16.6833","4909.97","11.8672","0.237344","500.5"
"16.7033","4910.52","11.8833","0.237666","501.1"
"16.7233","4910.69","11.8959","0.237918","501.7"
"16.7432","4910.74","11.9139","0.238278","502.3"
"16.7633","4911.18","11.9248","0.238496","502.9"
"16.7833","4911.74","11.9389","0.238778","503.5"
"16.8033","4912.44","11.9516","0.239032","504.1"
"16.8233","4913.14","11.9619","0.239238","504.7"
"16.8433","4913.18","11.9798","0.239596","505.3"
"16.8633","4913.28","11.9891","0.239782","505.9"
"16.8832","4913.56","12.0024","0.240048","506.5"
"16.9032","4913.79","12.0133","0.240266","507.1"
"16.9233","4914.76","12.0265","0.24053","507.7"
"16.9433","4915.35","12.0384","0.240768","508.3"
"16.9633","4915.15","12.0545","0.24109","508.9"
"16.9833","4916.12","12.0762","0.241524","509.5"
"17.0033","4916.2","12.082","0.24164","510.1"
"17.0233","4916.81","12.0935","0.24187","510.7"
"17.0432","4916.71","12.1028","0.242056","511.3"
"17.0633","4917.01","12.1176","0.242352","511.9"
"17.0833","4917.83","12.1302","0.242604","512.5"
"17.1033","4917.93","12.1462","0.242924","513.1"
"17.1233","4918.85","12.1673","0.243346","513.7"
"17.1433","4918.87","12.1771","0.243542","514.3"
"17.1633","4919.39","12.19","0.2438","514.9"
"17.1832","4919.29","12.196","0.24392","515.5"
"17.2033","4919.84","12.2149","0.244298","516.1"
"17.2233","4920.17","12.2208","0.244416","516.7"
"17.2433","4919.31","12.2323","0.244646","517.3"
"17.2633","4919.88","12.2498","0.244996","517.9"
"17.2833","4920.1","12.2555","0.24511","518.5"
"17.3033","4920.31","12.2752","0.245504","519.1"
"17.3232","4920.45","12.2915","0.24583","519.7"
"17.3433","4920.99","12.2992","0.245984","520.3"
"17.3633","4922.22","12.3043","0.246086","520.9"
"17.3833","4922.46","12.3212","0.246424","521.5"
"17.4033","4923.24","12.3337","0.246674","522.1"
"17.4232","4922.84","12.3446","0.246892","522.7"
"17.4433","4923.34","12.3596","0.247192","523.3"
"17.4632","4923.44","12.3783","0.247566","523.9"
"17.4833","4924.19","12.3931","0.247862","524.5"
"17.5032","4924.65","12.4049","0.248098","525.1"
"17.5234","4925.48","12.412","0.24824","525.7"
"17.5433","4925.47","12.4301","0.248602","526.3"
"17.5633","4925.51","12.4384","0.248768","526.9"
"17.5833","4925.74","12.4542","0.249084","527.5"
"17.6032","4926.3","12.4636","0.249272","528.1"
"17.6233","4926.98","12.4752","0.249504","528.7"
"17.6433","4927.25","12.4904","0.249808","529.3"
"17.6633","4927.66","12.4963","0.249926","529.9"
"17.6833","4927.99","12.5158","0.250316","530.5"
"17.7032","4928.56","12.5296","0.250592","531.1"
"17.7233","4928.61","12.5405","0.25081","531.7"
"17.7432","4928.98","12.5458","0.250916","532.3"
"17.7633","4929.85","12.5605","0.25121","532.9"
"17.7833","4930.13","12.5816","0.251632","533.5"
"17.8033","4930.35","12.5913","0.251826","534.1"
"17.8233","4930.65","12.5998","0.251996","534.7"
"17.8432","4931.18","12.6165","0.25233","535.3"
"17.8633","4931.12","12.6224","0.252448","535.9"
"17.8832","4931.58","12.6344","0.252688","536.5"
"17.9033","4932.33","12.6566","0.253132","537.1"
"17.9233","4932.38","12.6729","0.253458","537.7"
"17.9433","4933.12","12.6789","0.253578","538.3"
"17.9633","4933.26","12.6879","0.253758","538.9"
"17.9832","4933.35","12.7009","0.254018","539.5"
"18.0033","4933.3","12.7211","0.254422","540.1"
"18.0233","4933.85","12.7353","0.254706","540.7"
"18.0433","4934.28","12.7394","0.254788","541.3"
"18.0634","4935.07","12.7509","0.255018","541.9"
"18.0833","4935.38","12.7631","0.255262","542.5"
"18.1033","4935.79","12.7812","0.255624","543.1"
"18.1232","4935.72","12.7941","0.255882","543.7"
"18.1432","4935.61","12.8168","0.256336","544.3"
"18.1633","4936.32","12.8156","0.256312","544.9"
"18.1833","4936.95","12.83","0.2566","545.5"
"18.2033","4937.5","12.8459","0.256918","546.1"
"18.2233","4937.48","12.8548","0.257096","546.7"
"18.2433","4938","12.8743","0.257486","547.3"
"18.2633","4938.1","12.8827","0.257654","547.9"
"18.2833","4938.68","12.9005","0.25801","548.5"
"18.3032","4938.84","12.9058","0.258116","549.1"
"18.3233","4939.22","12.9198","0.258396","549.7"
"18.3433","4939.73","12.93","0.2586","550.3"
"18.3633","4940.04","12.9424","0.258848","550.9"
"18.3833","4940.49","12.9586","0.259172","551.5"
"18.4033","4940.31","12.9657","0.259314","552.1"
"18.4232","4941.03","12.9785","0.25957","552.7"
"18.4433","4940.97","12.9887","0.259774","553.3"
"18.4633","4941.05","13.0058","0.260116","553.9"
"18.4833","4942.08","13.0231","0.260462","554.5"
"18.5033","4942.17","13.0428","0.260856","555.1"
"18.5233","4942.69","13.0351","0.260702","555.7"
"18.5433","4942.83","13.0524","0.261048","556.3"
"18.5632","4943.24","13.0687","0.261374","556.9"
"18.5833","4943.23","13.0698","0.261396","557.5"
"18.6033","4944.22","13.094","0.26188","558.1"
"18.6233","4944.92","13.1031","0.262062","558.7"
"18.6433","4944.78","13.1234","0.262468","559.3"
"18.6633","4945.05","13.1367","0.262734","559.9"
"18.6832","4944.47","13.148","0.26296","560.5"
"18.7033","4945.37","13.1567","0.263134","561.1"
"18.7233","4945.79","13.1633","0.263266","561.7"
"18.7433","4946.44","13.186","0.26372","562.3"
"18.7633","4945.07","13.1957","0.263914","562.9"
"18.7833","4945.02","13.2068","0.264136","563.5"
"18.8033","4945.19","13.2194","0.264388","564.1"
"18.8233","4945.87","13.2272","0.264544","564.7"
"18.8432","4946.09","13.2438","0.264876","565.3"
"18.8633","4946.81","13.2519","0.265038","565.9"
"18.8833","4947.18","13.2651","0.265302","566.5"
"18.9033","4947.27","13.281","0.26562","567.1"
"18.9233","4947.97","13.2859","0.265718","567.7"
"18.9433","4948.2","13.3105","0.26621","568.3"
"18.9633","4948.51","13.3233","0.266466","568.9"
"18.9832","4948.71","13.3243","0.266486","569.5"
"19.0033","4949.53","13.3396","0.266792","570.1"
"19.0233","4949.75","13.3449","0.266898","570.7"
"19.0433","4950.46","13.3609","0.267218","571.3"
"19.0633","4950.42","13.3683","0.267366","571.9"
"19.0833","4950.77","13.3833","0.267666","572.5"
"19.1032","4951.1","13.3976","0.267952","573.1"
"19.1232","4950.88","13.4012","0.268024","573.7"
"19.1433","4951.56","13.4148","0.268296","574.3"
"19.1633","4951.84","13.4223","0.268446","574.9"
"19.1833","4952.62","13.4344","0.268688","575.5"
"19.2033","4953.11","13.4435","0.26887","576.1"
"19.2232","4952.66","13.4597","0.269194","576.7"
"19.2432","4953.17","13.4689","0.269378","577.3"
"19.2633","4953.28","13.4886","0.269772","577.9"
"19.2833","4954.01","13.4853","0.269706","578.5"
"19.3034","4954.27","13.4935","0.26987","579.1"
"19.3233","4954.62","13.5195","0.27039","579.7"
"19.3433","4955.15","13.5257","0.270514","580.3"
"19.3632","4954.95","13.5389","0.270778","580.9"
"19.3832","4955.1","13.5357","0.270714","581.5"
"19.4033","4955.74","13.545","0.2709","582.1"
"19.4233","4956.39","13.5653","0.271306","582.7"
"19.4433","4956.7","13.5794","0.271588","583.3"
"19.4633","4957.17","13.5786","0.271572","583.9"
"19.4833","4957.15","13.5947","0.271894","584.5"
"19.5033","4957.38","13.5959","0.271918","585.1"
"19.5232","4957.58","13.6153","0.272306","585.7"
"19.5433","4956.87","13.6302","0.272604","586.3"
"19.5633","4956.54","13.6489","0.272978","586.9"
"19.5833","4956.97","13.6482","0.272964","587.5"
"19.6033","4957.09","13.6695","0.27339","588.1"
"19.6233","4957.37","13.6697","0.273394","588.7"
"19.6433","4957.74","13.6789","0.273578","589.3"
"19.6632","4957.56","13.6996","0.273992","589.9"
"19.6833","4952.02","13.7015","0.27403","590.5"
"19.7033","4950.05","13.7036","0.274072","591.1"
"19.7233","4945.99","13.715","0.2743","591.7"
"19.7433","4941.63","13.7375","0.27475","592.3"
"19.7633","4938.39","13.7486","0.274972","592.9"
"19.7833","4937.02","13.7534","0.275068","593.5"
"19.8032","4936.74","13.7565","0.27513","594.1"
"19.8233","4936.93","13.7645","0.27529","594.7"
"19.8433","4937.06","13.7724","0.275448","595.3"
"19.8633","4937.36","13.7912","0.275824","595.9"
"19.8833","4937.26","13.8025","0.27605","596.5"
"19.9032","4936.79","13.8024","0.276048","597.1"
"19.9233","4936.35","13.8099","0.276198","597.7"
"19.9432","4935.68","13.8305","0.27661","598.3"
"19.9633","4935.13","13.8292","0.276584","598.9"
"19.9833","4932.14","13.8392","0.276784","599.5"
"20.0033","4879.9","13.8433","0.276866","600.1"
"20.0233","4376.32","13.8209","0.276418","600.7"
"20.0433","4344.74","13.8334","0.276668","601.3"
"20.0633","4315.76","13.8211","0.276422","601.9"
"20.0832","4293.58","13.824","0.27648","602.5"
"20.1033","4280.42","13.8281","0.276562","603.1"
"20.1233","4261.63","13.8287","0.276574","603.7"
"20.1433","4232.65","13.8317","0.276634","604.3"
"20.1633","4183.72","13.8225","0.27645","604.9"
"20.1833","4160.96","13.8168","0.276336","605.5"
"20.2033","4150.53","13.8138","0.276276","606.1"
"20.2233","4137.54","13.8098","0.276196","606.7"
"20.2432","4090.45","13.8122","0.276244","607.3"
"20.2599","132.091","13.798","0.27596","607.786"